Accel_X,Accel_Y,Accel_Z,Fall_Indicator
-8.18,-2.10,-4.91, 0
-8.22,-2.12,-4.98, 0
-8.18,-2.23,-5.02, 0
-8.22,-2.22,-4.96, 0
-8.17,-2.20,-4.92, 0
-8.20,-2.28,-4.90, 0
-8.19,-2.21,-4.95, 0
-8.21,-2.21,-4.93, 0
-8.23,-2.21,-4.93, 0
-8.20,-2.21,-4.95, 0
-8.15,-2.27,-4.94, 0
-8.20,-2.23,-4.93, 0
-8.17,-2.25,-4.94, 0
-8.14,-2.22,-4.88, 0
-8.17,-2.28,-4.90, 0
-8.27,-2.23,-4.96, 0
-8.28,-2.17,-4.82, 0
-8.26,-2.22,-4.87, 0
-8.25,-2.21,-4.82, 0
-8.28,-2.07,-4.82, 0
-8.32,-2.11,-4.84, 0
-8.15,-2.21,-4.75, 0
-8.13,-2.30,-4.70, 0
-8.14,-2.42,-4.77, 0
-8.17,-2.38,-4.88, 0
-8.27,-2.28,-4.93, 0
-8.22,-2.23,-4.93, 0
-8.25,-2.10,-4.76, 0
-8.37,-1.96,-4.89, 0
-8.27,-2.05,-4.96, 0
-8.19,-2.17,-4.88, 0
-8.30,-1.97,-4.96, 0
-8.41,-1.74,-5.02, 0
-8.42,-1.61,-4.88, 0
-8.38,-1.41,-4.92, 0
-8.48,-1.48,-4.98, 0
-8.32,-1.84,-4.91, 0
-8.12,-2.22,-4.72, 0
-8.11,-2.14,-4.79, 0
-8.30,-1.74,-5.04, 0
-8.52,-1.40,-5.02, 0
-8.42,-1.40,-4.90, 0
-8.27,-1.88,-4.84, 0
-8.15,-2.22,-4.80, 0
-8.10,-2.15,-4.85, 0
-8.08,-1.94,-4.84, 0
-8.25,-1.61,-4.59, 0
-8.45,-1.54,-5.03, 0
-8.44,-1.58,-5.14, 0
-8.44,-1.51,-4.95, 0
-8.28,-1.41,-4.76, 0
-8.13,-1.30,-4.71, 0
-8.22,-1.16,-4.97, 0
-8.42,-1.28,-5.16, 0
-8.33,-1.47,-5.24, 0
-8.15,-1.71,-5.13, 0
-8.00,-1.72,-5.12, 0
-8.17,-1.64,-5.27, 0
-8.12,-1.73,-5.26, 0
-8.06,-1.89,-5.21, 0
-7.94,-2.02,-5.24, 0
-7.79,-2.04,-5.38, 0
-7.78,-2.02,-5.49, 0
-7.96,-1.85,-5.59, 0
-7.80,-1.92,-5.55, 0
-7.95,-1.54,-5.56, 0
-7.81,-1.05,-5.46, 0
-7.63,-1.16,-5.70, 0
-7.67,-1.34,-6.16, 0
-7.86,-1.15,-6.49, 0
-7.84,-0.53,-6.53, 0
-7.89,-0.25,-6.56, 0
-7.99,-0.20,-6.56, 0
-7.97,-0.30,-6.38, 0
-8.02,-0.21,-6.13, 0
-8.01,0.22,-6.26, 0
-8.10,0.69,-6.33, 0
-8.15,0.75,-6.28, 0
-8.00,0.51,-6.16, 0
-7.69,0.11,-6.25, 0
-7.60,-0.59,-6.26, 0
-7.43,-0.87,-6.41, 0
-7.58,-0.85,-6.56, 0
-7.97,-0.72,-6.71, 0
-8.01,-0.15,-6.64, 0
-7.89,0.17,-6.43, 0
-7.67,0.12,-6.10, 0
-7.33,-0.17,-5.68, 0
-7.34,-0.68,-5.97, 0
-7.43,-0.81,-6.67, 0
-7.46,-0.88,-7.07, 0
-7.83,-1.56,-7.02, 0
-7.71,-1.70,-6.19, 0
-7.87,-1.44,-5.64, 0
-7.73,-1.08,-5.20, 0
-7.94,-1.58,-6.04, 0
-8.07,-1.77,-5.88, 0
-8.34,-1.87,-5.26, 0
-8.29,-1.58,-4.38, 0
-7.67,-0.19,-3.46, 0
-7.89,-0.20,-4.64, 0
-8.71,-0.84,-6.90, 0
-8.40,-0.85,-6.49, 0
-8.15,0.55,-4.51, 0
-8.84,1.67,-3.28, 0
-9.78,2.01,-4.03, 0
-11.06,1.74,-5.85, 0
-10.98,1.71,-7.23, 0
-10.27,1.77,-6.38, 0
-8.89,2.05,-4.02, 0
-8.47,2.01,-2.14, 0
-8.20,1.98,-2.42, 0
-9.07,1.32,-3.79, 0
-8.89,0.84,-4.20, 0
-7.77,0.51,-3.52, 0
-8.15,0.60,-2.46, 0
-8.29,0.68,-2.33, 0
-8.21,0.44,-3.10, 0
-8.18,0.10,-3.76, 0
-8.42,0.55,-3.88, 0
-8.43,1.55,-3.69, 0
-8.49,2.42,-3.64, 0
-8.81,2.88,-4.03, 0
-8.90,2.85,-4.32, 0
-8.70,2.24,-4.44, 0
-8.63,1.34,-4.52, 0
-8.81,0.56,-4.21, 0
-8.95,0.14,-3.99, 0
-8.65,0.50,-3.65, 0
-8.54,1.11,-3.61, 0
-8.65,1.77,-3.93, 0
-8.79,1.68,-4.54, 0
-9.01,1.31,-4.71, 0
-8.75,1.02,-4.49, 0
-8.35,0.72,-3.68, 0
-7.98,0.34,-3.26, 0
-8.35,0.01,-3.49, 0
-8.20,0.35,-3.83, 0
-8.57,0.77,-4.03, 0
-8.70,1.02,-4.12, 0
-8.39,1.34,-4.02, 0
-8.01,2.05,-3.83, 0
-8.30,2.68,-3.78, 0
-8.45,3.15,-4.47, 0
-8.75,3.01,-5.03, 0
-8.63,2.63,-5.24, 0
-6.93,2.81,-5.00, 0
-6.39,2.62,-4.07, 0
-12.97,-1.59,-5.07, 0
-14.73,-3.58,-12.00, 0
-11.97,-6.70,-11.56, 0
-6.72,-3.18,-2.42, 0
-6.22,0.86,0.64, 0
-7.56,4.17,-1.08, 0
-8.46,2.07,-2.87, 0
-9.00,-2.65,-5.56, 0
-9.79,-5.19,-7.71, 0
-8.65,-3.18,-6.04, 0
-7.10,-0.43,-3.76, 0
-7.32,1.03,-3.17, 0
-8.22,0.58,-4.63, 0
-8.74,-0.97,-6.45, 0
-8.16,-1.32,-6.71, 0
-8.01,-1.61,-6.23, 0
-7.93,-1.03,-5.42, 0
-7.58,-0.28,-4.77, 0
-7.64,0.31,-4.86, 0
-7.84,0.76,-5.34, 0
-8.05,0.72,-5.42, 0
-7.56,0.72,-5.13, 0
-7.06,0.94,-4.69, 0
-6.64,1.17,-4.71, 0
-7.35,1.17,-5.25, 0
-8.03,1.12,-5.88, 0
-9.03,0.81,-6.44, 0
-8.92,1.41,-6.39, 0
-8.38,1.13,-5.90, 0
-7.31,0.19,-5.75, 0
-8.39,-0.39,-4.72, 0
-7.24,0.13,-4.19, 0
-9.82,2.07,-4.56, 0
-11.24,4.62,-5.78, 0
-12.06,4.03,-9.19, 0
-12.03,0.25,-11.75, 0
-10.51,-1.06,-10.28, 0
-8.26,-0.87,-6.30, 0
-6.21,-0.74,-2.70, 0
-5.24,-1.76,0.65, 0
-4.94,-3.10,1.31, 0
-6.31,-2.80,-1.98, 0
-9.93,-1.90,-4.90, 0
-11.82,1.26,-7.20, 0
-12.33,3.20,-7.55, 0
-10.47,3.27,-5.60, 0
-8.22,2.18,-3.02, 0
-7.07,0.82,-1.36, 0
-6.81,0.16,-2.43, 0
-8.12,0.11,-3.85, 0
-8.62,0.48,-4.31, 0
-8.36,0.50,-3.76, 0
-7.98,0.21,-3.08, 0
-7.54,0.44,-3.06, 0
-7.43,1.04,-3.22, 0
-7.38,1.70,-3.63, 0
-8.23,1.64,-3.83, 0
-8.98,1.56,-4.43, 0
-8.79,1.70,-4.89, 0
-8.46,1.68,-4.40, 0
-8.28,2.28,-3.53, 0
-7.95,3.32,-3.24, 0
-8.07,4.68,-3.34, 0
-8.26,5.52,-3.60, 0
-14.23,2.39,-3.38, 0
-12.48,1.06,-9.29, 0
-13.02,-3.33,-10.42, 0
-9.61,-5.38,-6.45, 0
-8.21,-2.40,-0.40, 0
-8.16,1.82,0.17, 0
-8.34,2.16,-3.31, 0
-8.64,-1.15,-6.48, 0
-7.95,-3.06,-7.29, 0
-7.56,-2.90,-6.07, 0
-7.46,-1.52,-4.04, 0
-7.22,-1.39,-3.25, 0
-7.24,-1.29,-3.42, 0
-7.56,-0.06,-4.10, 0
-8.53,1.22,-5.22, 0
-8.88,1.60,-6.22, 0
-8.99,1.54,-6.74, 0
-8.90,1.09,-6.19, 0
-7.87,0.99,-4.84, 0
-7.37,1.41,-4.11, 0
-7.44,2.04,-4.17, 0
-7.78,2.61,-4.79, 0
-7.83,3.12,-5.37, 0
-7.70,3.19,-5.06, 0
-7.30,2.73,-4.39, 0
-7.54,1.34,-4.79, 0
-8.58,-0.49,-5.46, 0
-9.20,-1.15,-5.51, 0
-8.55,-0.21,-5.02, 0
-8.41,0.86,-4.35, 0
-8.00,1.09,-4.43, 0
-9.32,0.37,-4.21, 0
-7.74,0.29,-2.81, 0
-7.73,2.42,-3.05, 0
-10.46,4.49,-5.13, 0
-12.58,2.28,-8.53, 0
-11.23,-1.74,-10.00, 0
-11.53,-2.26,-9.86, 0
-10.70,-0.49,-8.08, 0
-9.10,0.70,-6.01, 0
-6.68,1.58,-3.60, 0
-6.23,6.00,-1.51, 0
-6.36,7.39,3.59, 0
-4.27,-0.04,0.59, 0
-7.38,-3.37,-6.74, 0
-11.69,-0.39,-10.05, 0
-12.50,2.98,-8.43, 0
-10.28,4.24,-4.66, 0
-8.02,4.30,-1.19, 0
-6.27,3.07,-0.36, 0
-6.86,1.75,-2.87, 0
-7.91,1.49,-3.94, 0
-8.01,1.71,-3.94, 0
-7.34,2.01,-2.50, 0
-6.53,2.69,-1.53, 0
-6.89,3.27,-2.35, 0
-7.53,3.30,-3.92, 0
-7.81,3.28,-4.57, 0
-7.80,3.34,-4.55, 0
-8.13,3.05,-4.13, 0
-8.55,3.61,-3.91, 0
-8.42,4.83,-3.74, 0
-7.78,5.66,-3.65, 0
-9.06,5.70,-3.38, 0
-12.72,4.89,-7.95, 0
-14.52,0.86,-11.77, 0
-11.37,-1.96,-7.82, 0
-8.16,-2.88,0.16, 0
-6.21,-0.44,1.10, 0
-6.52,2.63,-1.65, 0
-7.98,2.70,-5.04, 0
-8.92,1.14,-7.35, 0
-9.02,0.25,-7.55, 0
-8.43,0.58,-6.70, 0
-7.41,0.55,-4.29, 0
-6.86,-0.08,-2.40, 0
-6.48,1.47,-2.71, 0
-7.36,2.80,-4.96, 0
-8.22,3.06,-6.43, 0
-9.03,2.24,-7.03, 0
-9.06,1.12,-6.60, 0
-8.12,0.24,-5.32, 0
-7.53,0.57,-4.31, 0
-7.56,1.89,-4.12, 0
-7.90,2.96,-4.89, 0
-8.03,3.50,-5.66, 0
-7.86,3.57,-5.65, 0
-7.40,3.41,-5.06, 0
-7.11,3.06,-4.42, 0
-6.94,2.59,-4.39, 0
-7.12,2.08,-4.51, 0
-7.59,1.90,-4.82, 0
-8.87,2.02,-4.82, 0
-8.02,2.88,-4.90, 0
-8.32,3.32,-4.42, 0
-8.02,2.02,-5.26, 0
-7.63,1.54,-3.76, 0
-7.08,1.83,-4.01, 0
-8.86,4.12,-5.45, 0
-11.13,6.77,-6.56, 0
-11.60,5.99,-9.32, 0
-11.69,2.39,-11.38, 0
-10.19,0.46,-9.29, 0
-7.52,-0.19,-4.77, 0
-5.45,-1.34,-0.45, 0
-3.51,-2.54,2.62, 0
-4.28,-2.78,0.68, 0
-7.22,-1.79,-3.11, 0
-10.08,1.56,-6.25, 0
-12.24,5.15,-8.27, 0
-12.84,5.94,-8.84, 0
-10.05,4.66,-5.79, 0
-6.98,3.28,-1.44, 0
-5.74,1.77,0.14, 0
-7.44,1.15,-2.44, 0
-8.70,1.35,-4.87, 0
-9.73,1.84,-5.91, 0
-9.28,2.17,-5.01, 0
-7.71,2.84,-3.27, 0
-6.09,2.97,-2.40, 0
-5.96,3.22,-3.54, 0
-7.36,3.81,-4.54, 0
-7.38,4.36,-3.96, 0
-6.11,4.38,-3.97, 0
-6.64,3.62,-4.06, 0
-7.03,3.56,-4.55, 0
-8.26,4.23,-4.71, 0
-11.11,4.02,-7.90, 0
-12.29,1.93,-10.47, 0
-13.41,-0.69,-9.16, 0
-9.42,-0.70,-4.76, 0
-6.50,0.89,-1.00, 0
-8.19,3.05,-1.89, 0
-9.00,2.48,-4.41, 0
-8.73,0.75,-6.02, 0
-7.92,-1.19,-6.24, 0
-6.56,-0.77,-5.30, 0
-6.37,0.57,-4.74, 0
-7.69,1.91,-5.25, 0
-8.31,2.55,-6.21, 0
-7.78,2.05,-6.26, 0
-7.29,1.33,-6.26, 0
-6.88,0.46,-6.15, 0
-6.92,0.46,-6.51, 0
-7.07,0.78,-7.20, 0
-7.03,1.08,-7.22, 0
-6.95,0.77,-7.00, 0
-7.43,0.94,-6.95, 0
-8.01,1.35,-6.91, 0
-8.17,1.82,-6.58, 0
-7.17,1.83,-6.45, 0
-7.78,1.77,-5.69, 0
-7.76,-0.14,-5.46, 0
-8.79,-0.67,-3.99, 0
-9.69,-2.10,-5.36, 0
-8.92,-1.08,-6.23, 0
-9.37,-0.41,-7.50, 0
-9.62,0.54,-7.66, 0
-9.73,-0.54,-6.70, 0
-9.33,-1.38,-2.99, 0
-7.35,-0.64,0.30, 0
-7.32,-0.69,-1.40, 0
-8.73,-1.61,-3.15, 0
-10.65,-0.19,-1.72, 0
-8.78,0.84,-0.90, 0
-10.45,-0.29,-2.96, 0
-9.74,-0.89,-2.36, 0
-10.21,-4.10,-2.82, 0
-9.22,-3.23,-2.62, 0
-9.19,-3.02,-3.02, 0
-9.44,-1.61,-3.62, 0
-9.13,-0.81,-4.08, 0
-8.79,-0.25,-3.94, 0
-10.25,-1.04,-4.19, 0
-10.18,-1.36,-4.09, 0
-9.15,-1.44,-4.33, 0
-9.52,-1.62,-5.18, 0
-8.99,-1.64,-5.83, 0
-9.90,-1.78,-7.36, 0
-8.84,-1.26,-8.37, 0
-7.19,0.14,-6.54, 0
-4.97,1.02,-4.08, 0
-5.59,1.32,-3.92, 0
-7.72,0.76,-5.97, 0
-8.89,-0.77,-7.31, 0
-9.55,-2.14,-7.76, 0
-9.00,-2.55,-7.71, 0
-9.16,-0.22,-6.78, 0
-10.41,4.92,-4.40, 0
-9.92,7.99,-4.08, 0
-6.70,6.01,-5.85, 0
-5.89,2.65,-4.66, 0
-4.43,2.47,-1.30, 0
-6.92,4.26,-2.93, 0
-9.69,5.38,-4.30, 0
-8.90,4.91,-3.34, 0
-8.09,4.46,-1.72, 0
-7.14,4.97,-2.13, 0
-7.97,5.73,-3.02, 0
-8.58,5.30,-3.23, 0
-7.76,4.14,-1.78, 0
-7.71,2.44,-0.22, 0
-8.66,1.13,0.04, 0
-9.55,0.82,-1.68, 0
-9.45,1.17,-2.97, 0
-8.91,2.28,-2.62, 0
-9.13,2.65,-1.09, 0
-9.12,1.81,-0.23, 0
-8.55,1.16,-1.99, 0
-9.59,1.10,-3.42, 0
-8.40,0.75,-4.77, 0
-9.09,-0.18,-4.38, 0
-9.46,0.25,-6.03, 0
-8.47,0.75,-6.04, 0
-7.99,2.23,-5.05, 0
-9.10,2.90,-7.36, 0
-10.42,2.63,-8.62, 0
-8.93,0.95,-6.33, 0
-7.11,0.29,-4.23, 0
-5.95,1.38,-3.42, 0
-6.75,2.70,-4.44, 0
-8.17,2.97,-6.63, 0
-8.99,3.36,-8.34, 0
-9.04,2.94,-7.83, 0
-8.36,1.52,-6.54, 0
-7.70,0.78,-5.72, 0
-7.50,1.31,-5.61, 0
-7.90,2.34,-5.69, 0
-8.19,2.92,-5.83, 0
-7.66,3.14,-5.55, 0
-7.30,3.01,-5.62, 0
-7.35,2.92,-5.46, 0
-7.25,2.96,-5.42, 0
-7.53,3.25,-5.45, 0
-7.27,3.83,-6.00, 0
-7.51,4.54,-5.72, 0
-7.24,5.42,-5.07, 0
-7.35,5.77,-4.85, 0
-7.65,5.31,-4.77, 0
-7.62,4.73,-4.52, 0
-7.40,4.44,-4.09, 0
-7.31,4.36,-4.24, 0
-7.64,4.42,-4.21, 0
-7.90,4.66,-4.20, 0
-7.97,4.68,-4.24, 0
-9.32,3.24,-4.28, 0
-10.08,2.34,-1.00, 0
-9.05,2.86,-0.77, 0
-9.83,0.75,-4.42, 0
-11.09,-2.32,-9.55, 0
-10.28,-3.67,-8.80, 0
-7.93,-1.97,-6.02, 0
-6.79,0.84,-3.21, 0
-6.50,2.02,-2.67, 0
-6.94,1.31,-3.31, 0
-7.71,0.95,-4.00, 0
-8.87,1.88,-4.83, 0
-9.55,3.54,-4.65, 0
-9.71,4.63,-4.35, 0
-10.04,4.98,-4.16, 0
-10.05,4.99,-4.20, 0
-9.42,4.53,-3.78, 0
-8.15,3.85,-3.25, 0
-7.29,3.57,-2.66, 0
-6.85,3.83,-2.32, 0
-6.57,4.25,-2.23, 0
-6.57,4.06,-2.02, 0
-6.61,3.27,-2.01, 0
-6.92,2.46,-2.29, 0
-7.03,2.44,-2.97, 0
-7.49,2.81,-3.80, 0
-7.92,3.62,-3.66, 0
-8.53,5.43,-3.39, 0
-12.87,5.58,-3.99, 0
-13.15,6.41,-8.49, 0
-13.08,4.63,-6.83, 0
-8.53,3.91,-2.49, 0
-6.78,3.02,0.19, 0
-7.96,2.84,-0.90, 0
-9.06,1.16,-4.61, 0
-9.11,-0.25,-7.08, 0
-7.32,-1.18,-5.48, 0
-7.15,-0.61,-5.47, 0
-7.45,0.37,-5.13, 0
-7.65,0.01,-4.50, 0
-7.73,-0.79,-4.36, 0
-8.20,-0.55,-4.37, 0
-8.56,1.41,-4.86, 0
-8.86,3.48,-5.84, 0
-9.22,4.46,-6.67, 0
-8.85,4.08,-6.29, 0
-8.07,2.79,-5.29, 0
-7.40,1.61,-4.28, 0
-7.14,0.84,-4.38, 0
-7.46,0.94,-4.87, 0
-7.96,1.33,-5.47, 0
-7.74,1.81,-5.62, 0
-7.38,1.87,-5.22, 0
-6.65,2.26,-4.73, 0
-6.09,3.62,-4.40, 0
-6.61,5.16,-4.21, 0
-7.12,6.15,-4.60, 0
-7.75,5.43,-5.59, 0
-7.33,4.38,-5.58, 0
-9.95,1.68,-5.07, 0
-9.33,1.53,-2.58, 0
-9.31,3.12,-3.40, 0
-13.67,2.20,-7.37, 0
-15.11,1.27,-11.43, 0
-13.07,0.28,-10.88, 0
-9.73,-0.31,-8.00, 0
-6.91,-0.30,-4.47, 0
-4.86,-0.82,-0.02, 0
-3.15,-1.42,2.08, 0
-5.09,-0.70,0.83, 0
-8.15,1.28,-2.35, 0
-10.74,3.89,-5.09, 0
-11.84,4.91,-6.50, 0
-11.35,3.81,-6.76, 0
-9.23,3.54,-4.84, 0
-7.28,2.44,-2.12, 0
-6.36,1.70,-1.06, 0
-6.58,1.84,-1.70, 0
-7.77,1.96,-2.97, 0
-7.85,1.94,-3.73, 0
-7.42,1.61,-3.30, 0
-7.02,1.50,-2.19, 0
-7.97,1.29,-2.42, 0
-8.69,1.35,-3.79, 0
-9.35,1.47,-4.93, 0
-9.29,2.32,-5.02, 0
-8.55,3.32,-4.38, 0
-8.06,4.08,-3.35, 0
-6.79,4.65,-3.20, 0
-6.90,5.49,-3.20, 0
-7.68,6.62,-4.15, 0
-7.84,7.11,-4.51, 0
-7.58,6.98,-3.68, 0
-6.66,5.99,-2.65, 0
-13.29,1.48,-1.75, 0
-13.46,0.74,-8.45, 0
-17.64,-3.97,-12.34, 0
-10.10,-3.61,-7.77, 0
-5.70,1.46,-0.63, 0
-6.16,6.60,0.23, 0
-7.20,7.55,-2.08, 0
-8.13,2.31,-5.06, 0
-8.69,-3.59,-7.19, 0
-9.51,-6.59,-7.54, 0
-7.66,-3.11,-4.90, 0
-6.23,1.40,-1.84, 0
-6.90,4.45,-1.94, 0
-8.18,5.12,-3.94, 0
-9.30,3.09,-7.02, 0
-9.62,1.25,-8.63, 0
-8.77,0.12,-7.23, 0
-7.23,0.32,-4.55, 0
-6.52,1.70,-3.10, 0
-6.25,2.75,-3.30, 0
-7.06,3.11,-4.30, 0
-7.67,3.16,-5.08, 0
-7.20,3.34,-5.18, 0
-6.96,3.50,-5.12, 0
-8.28,2.77,-4.81, 0
-9.46,1.61,-4.78, 0
-8.33,0.96,-4.95, 0
-8.03,1.19,-5.02, 0
-7.63,1.73,-4.90, 0
-7.87,1.86,-5.36, 0
-8.34,2.55,-3.48, 0
-9.53,5.81,-5.29, 0
-12.73,7.93,-7.18, 0
-13.22,5.32,-9.62, 0
-11.23,1.19,-10.50, 0
-10.09,-2.00,-9.87, 0
-7.43,-3.27,-4.14, 0
-3.69,-3.00,1.80, 0
-3.07,-1.49,2.99, 0
-4.76,-0.66,0.16, 0
-7.37,0.14,-4.10, 0
-10.17,2.31,-7.06, 0
-12.35,5.20,-8.43, 0
-12.35,5.90,-7.71, 0
-10.30,5.30,-4.78, 0
-7.77,4.62,-1.76, 0
-7.10,4.08,-1.56, 0
-7.30,3.86,-2.61, 0
-7.76,3.13,-4.15, 0
-7.94,2.54,-4.50, 0
-7.40,2.26,-3.90, 0
-7.09,2.10,-3.30, 0
-6.69,1.43,-3.49, 0
-7.18,0.43,-4.19, 0
-7.27,0.14,-4.69, 0
-7.16,0.68,-4.79, 0
-7.39,2.37,-4.21, 0
-7.87,4.52,-4.20, 0
-8.72,5.75,-4.61, 0
-9.30,6.06,-5.46, 0
-8.89,5.72,-5.35, 0
-7.89,5.71,-4.59, 0
-7.13,6.00,-3.66, 0
-9.84,4.77,-3.34, 0
-10.32,4.36,-7.29, 0
-11.81,0.50,-8.61, 0
-12.52,-2.43,-8.19, 0
-9.23,-2.62,-5.59, 0
-7.56,-0.14,-2.52, 0
-7.38,2.28,-1.45, 0
-7.02,1.93,-2.60, 0
-7.49,-0.23,-4.43, 0
-7.98,-2.42,-6.29, 0
-8.35,-2.20,-6.94, 0
-8.21,0.51,-5.70, 0
-7.26,3.69,-3.78, 0
-7.33,5.03,-3.21, 0
-7.71,4.42,-4.48, 0
-8.22,3.03,-6.30, 0
-8.37,1.73,-6.38, 0
-7.82,1.42,-5.01, 0
-7.47,1.73,-3.90, 0
-7.45,1.95,-4.17, 0
-7.77,1.87,-5.09, 0
-8.06,1.51,-5.97, 0
-8.22,1.02,-6.08, 0
-7.98,0.90,-5.57, 0
-7.68,1.22,-5.20, 0
-8.11,1.43,-5.68, 0
-8.03,1.64,-6.31, 0
-7.79,1.98,-6.14, 0
-7.56,2.21,-5.40, 0
-7.41,2.26,-4.93, 0
-7.04,2.24,-4.92, 0
-7.24,2.44,-5.28, 0
-7.54,2.67,-5.72, 0
-7.59,2.80,-5.87, 0
-7.28,3.02,-6.00, 0
-7.59,2.67,-6.62, 0
-7.91,2.36,-7.07, 0
-7.68,2.21,-6.92, 0
-6.99,2.52,-6.09, 0
-6.53,2.58,-6.33, 0
-6.41,2.16,-6.62, 0
-9.41,0.76,-5.23, 0
-8.11,2.57,-2.13, 0
-7.85,4.88,-0.92, 0
-9.29,1.12,-4.12, 0
-13.14,-2.59,-7.57, 0
-13.93,-4.45,-8.83, 0
-12.52,-5.05,-9.00, 0
-9.73,-1.66,-5.85, 0
-7.48,2.27,-1.68, 0
-8.51,3.82,0.30, 0
-10.36,3.49,-1.38, 0
-11.54,2.98,-5.13, 0
-11.28,1.83,-6.85, 0
-9.36,0.74,-4.14, 0
-7.07,0.60,-0.71, 0
-6.26,1.84,-0.28, 0
-7.35,2.77,-2.65, 0
-7.83,2.64,-3.98, 0
-7.57,1.76,-3.06, 0
-7.53,0.92,-2.45, 0
-7.69,0.79,-2.38, 0
-8.16,1.44,-2.55, 0
-8.32,2.91,-3.21, 0
-7.40,3.52,-3.19, 0
-7.48,3.73,-2.94, 0
-6.92,3.05,-3.22, 0
-6.11,2.02,-2.55, 0
-7.47,1.91,-2.45, 0
-10.72,3.15,-5.46, 0
-13.03,4.65,-7.87, 0
-13.01,5.61,-7.96, 0
-11.41,2.30,-5.33, 0
-9.23,-0.93,-3.89, 0
-7.56,-1.23,-3.67, 0
-6.84,-1.37,-3.30, 0
-6.87,-1.28,-3.27, 0
-6.72,0.08,-4.06, 0
-7.33,2.17,-5.08, 0
-8.12,2.68,-4.70, 0
-8.58,2.05,-4.29, 0
-8.52,2.11,-4.65, 0
-8.34,2.32,-5.25, 0
-7.75,2.18,-5.55, 0
-7.66,2.02,-5.82, 0
-7.73,1.62,-6.12, 0
-7.83,1.60,-5.78, 0
-7.88,1.91,-5.25, 0
-7.86,2.44,-5.01, 0
-8.18,2.64,-5.39, 0
-8.26,3.52,-5.56, 0
-8.27,4.33,-5.31, 0
-7.97,4.27,-5.16, 0
-7.82,3.65,-5.42, 0
-7.72,3.06,-5.70, 0
-7.55,2.68,-5.77, 0
-7.57,2.83,-5.53, 0
-6.98,3.63,-5.12, 0
-6.85,4.20,-5.09, 0
-7.19,3.78,-5.68, 0
-7.41,3.49,-5.71, 0
-6.86,3.68,-5.80, 0
-7.16,3.34,-5.81, 0
-7.55,2.41,-6.42, 0
-10.49,1.31,-5.24, 0
-6.85,1.94,-4.61, 0
-6.17,2.16,-4.88, 0
-8.00,1.66,-6.15, 0
-8.33,2.46,-5.39, 0
-8.03,3.94,-4.96, 0
-9.58,3.87,-6.30, 0
-11.00,2.61,-8.08, 0
-10.58,2.29,-7.28, 0
-9.08,2.30,-4.31, 0
-8.66,1.40,-3.16, 0
-8.27,-0.58,-2.98, 0
-7.14,-1.92,-3.00, 0
-7.15,-2.07,-2.69, 0
-7.65,-1.60,-3.17, 0
-7.98,0.40,-4.20, 0
-9.72,3.95,-5.05, 0
-11.47,6.52,-5.80, 0
-10.74,6.16,-5.56, 0
-9.59,4.13,-4.77, 0
-8.71,2.39,-4.36, 0
-8.34,1.73,-4.56, 0
-8.15,2.53,-4.29, 0
-7.98,3.26,-3.90, 0
-7.10,3.60,-2.99, 0
-6.30,3.44,-2.20, 0
-5.87,3.10,-1.93, 0
-6.08,2.56,-2.26, 0
-5.99,2.05,-2.97, 0
-6.39,1.31,-3.98, 0
-7.15,1.65,-5.00, 0
-7.81,3.08,-6.20, 0
-9.01,4.82,-7.72, 0
-10.68,5.98,-7.99, 0
-14.57,4.38,-7.84, 0
-12.16,1.67,-8.02, 0
-7.90,-2.52,-6.18, 0
-4.69,-2.35,-0.31, 0
-6.10,-1.22,1.43, 0
-10.74,0.11,-2.57, 0
-11.37,0.63,-7.05, 0
-10.11,-0.06,-7.78, 0
-8.34,-0.73,-6.33, 0
-6.24,-0.64,-4.86, 0
-5.87,-0.70,-5.35, 0
-7.70,-0.07,-5.79, 0
-8.27,1.13,-5.62, 0
-9.04,2.51,-4.87, 0
-9.62,2.90,-5.19, 0
-9.71,1.90,-6.84, 0
-8.97,1.39,-8.19, 0
-7.84,1.57,-7.20, 0
-7.06,1.84,-5.96, 0
-6.23,1.91,-5.27, 0
-6.08,1.38,-5.63, 0
-7.01,0.50,-7.05, 0
-7.08,0.91,-7.52, 0
-6.84,1.86,-7.57, 0
-6.08,2.77,-7.17, 0
-5.71,3.44,-5.94, 0
-6.11,4.18,-5.13, 0
-9.07,3.59,-5.17, 0
-9.33,3.89,-3.99, 0
-8.12,4.96,-2.78, 0
-8.20,4.24,-3.52, 0
-8.72,2.39,-6.42, 0
-8.94,0.29,-7.03, 0
-8.78,0.39,-5.83, 0
-8.31,1.88,-4.18, 0
-8.74,2.58,-2.96, 0
-7.81,2.84,-3.02, 0
-7.13,3.04,-3.75, 0
-7.26,4.11,-4.61, 0
-7.78,5.08,-5.60, 0
-7.70,5.60,-5.33, 0
-7.88,5.39,-3.39, 0
-7.96,6.01,-2.74, 0
-8.48,6.92,-4.18, 0
-9.04,6.98,-5.30, 0
-9.21,6.65,-5.63, 0
-8.49,5.55,-4.85, 0
-7.68,4.86,-3.48, 0
-7.28,4.67,-2.35, 0
-7.02,4.98,-2.53, 0
-7.23,4.86,-2.45, 0
-7.48,4.24,-2.46, 0
-7.58,3.11,-2.56, 0
-7.75,2.05,-2.92, 0
-7.95,1.71,-3.51, 0
-8.04,2.16,-3.67, 0
-8.18,3.25,-3.45, 0
-8.24,3.98,-3.41, 0
-8.17,4.40,-3.33, 0
-7.83,4.39,-3.25, 0
-7.48,4.28,-2.79, 0
-7.87,3.95,-2.33, 0
-10.51,3.26,-3.81, 0
-13.73,1.95,-7.92, 0
-11.04,1.26,-7.57, 0
-7.95,0.43,-2.51, 0
-6.50,0.64,-0.14, 0
-6.79,1.98,-1.13, 0
-7.98,2.22,-3.52, 0
-9.17,0.26,-6.00, 0
-9.24,-2.43,-7.12, 0
-9.21,-3.62,-7.28, 0
-7.87,-2.10,-5.79, 0
-8.19,-0.07,-4.01, 0
-7.94,1.30,-4.09, 0
-7.07,0.80,-4.60, 0
-7.55,-1.15,-4.87, 0
-7.88,-2.16,-6.21, 0
-8.18,-0.92,-7.13, 0
-8.76,1.01,-7.36, 0
-8.93,2.81,-7.47, 0
-7.88,3.78,-5.84, 0
-7.07,3.12,-3.74, 0
-7.30,1.14,-3.52, 0
-7.31,-1.23,-4.49, 0
-6.61,-2.85,-5.32, 0
-5.68,-2.93,-5.40, 0
-6.44,-1.56,-4.94, 0
-8.03,0.83,-3.76, 0
-7.59,2.27,-3.41, 0
-9.18,2.86,-2.97, 0
-7.72,3.51,-2.81, 0
-7.64,0.91,-4.04, 0
-7.94,-0.95,-4.13, 0
-8.29,-1.72,-4.08, 0
-9.25,-1.85,-4.08, 0
-9.08,-1.26,-2.66, 0
-7.95,-1.31,-2.63, 0
-8.99,-0.79,-3.66, 0
-9.33,0.90,-4.46, 0
-8.97,1.51,-3.83, 0
-7.87,1.25,-2.27, 0
-7.63,0.35,-1.34, 0
-8.91,-0.25,-1.13, 0
-9.63,-0.31,-2.04, 0
-8.89,-0.24,-2.69, 0
-8.63,0.06,-3.05, 0
-9.06,0.11,-2.54, 0
-8.84,0.55,-2.12, 0
-9.55,0.48,-2.41, 0
-10.08,0.13,-3.68, 0
-10.07,0.11,-3.79, 0
-10.08,0.51,-2.70, 0
-9.85,0.91,-2.05, 0
-9.29,0.63,-2.08, 0
-8.95,0.04,-2.49, 0
-9.42,-0.35,-2.97, 0
-9.60,-0.02,-3.27, 0
-9.66,0.28,-3.31, 0
-9.55,1.11,-2.60, 0
-9.47,1.04,-2.12, 0
-9.39,0.49,-2.52, 0
-9.70,-0.21,-3.14, 0
-9.65,-0.00,-3.54, 0
-10.20,0.51,-3.28, 0
-10.18,1.01,-2.72, 0
-9.96,0.90,-2.35, 0
-9.56,0.48,-2.41, 0
-9.23,-0.04,-2.91, 0
-9.07,-0.27,-2.99, 0
-9.30,0.44,-2.49, 0
-9.93,0.97,-2.68, 0
-10.44,0.86,-3.37, 0
-10.51,0.20,-3.91, 0
-9.98,0.54,-3.80, 0
-10.11,1.61,-3.06, 0
-10.22,1.74,-3.08, 0
-10.56,0.84,-3.23, 0
-10.64,0.18,-3.56, 0
-10.86,0.51,-3.61, 0
-10.91,1.32,-3.44, 0
-10.84,1.55,-3.45, 0
-10.81,1.35,-3.68, 0
-10.77,1.11,-3.78, 0
-10.34,0.48,-3.40, 0
-9.60,0.29,-2.97, 0
-9.08,0.59,-2.77, 0
-8.98,1.16,-2.98, 0
-9.06,1.34,-2.88, 0
-8.58,1.25,-2.82, 0
-8.09,1.09,-2.66, 0
-7.99,0.91,-2.49, 0
-8.22,1.00,-2.88, 0
-8.46,1.08,-3.01, 0
-8.51,0.94,-2.86, 0
-8.49,0.86,-2.70, 0
-8.69,0.84,-2.89, 0
-9.17,1.04,-3.33, 0
-9.42,1.09,-3.45, 0
-9.59,1.06,-3.20, 0
-9.78,1.06,-3.18, 0
-9.94,0.91,-3.48, 0
-10.16,0.80,-3.60, 0
-10.44,0.89,-3.59, 0
-11.11,1.11,-3.70, 0
-12.21,1.35,-4.40, 0
-13.75,1.37,-5.07, 0
-13.99,1.57,-4.91, 0
-14.17,0.82,-3.48, 0
-13.52,-0.40,-3.50, 0
-13.26,-0.90,-4.49, 0
-13.09,-0.67,-5.08, 0
-11.96,0.84,-4.20, 0
-11.25,1.81,-2.64, 0
-10.97,1.04,-2.70, 0
-9.17,-0.96,-2.54, 0
-10.03,-0.87,-2.42, 0
-10.14,-1.02,-3.40, 0
-8.40,-1.42,-2.64, 0
-8.95,-1.03,-2.44, 0
-9.66,-0.24,-2.75, 0
-8.45,0.35,-1.68, 0
-7.99,-0.63,-2.03, 0
-8.76,-1.07,-2.85, 0
-9.28,-1.09,-3.25, 0
-8.79,-0.82,-2.69, 0
-8.09,-0.86,-3.07, 0
-7.27,-0.79,-3.39, 0
-7.22,-0.85,-2.81, 0
-7.07,-0.99,-2.78, 0
-6.99,-0.96,-3.04, 0
-7.20,-0.87,-3.34, 0
-7.47,-0.88,-3.22, 0
-7.57,-1.40,-3.53, 0
-7.47,-1.73,-3.84, 0
-7.69,-1.89,-4.12, 0
-7.73,-1.20,-4.29, 0
-7.61,-0.86,-4.12, 0
-7.00,-0.57,-3.54, 0
-6.68,-0.83,-3.12, 0
-6.56,-1.04,-3.53, 0
-6.99,-0.95,-4.12, 0
-6.71,-0.62,-4.45, 0
-7.00,-0.76,-4.18, 0
-7.06,-1.16,-4.28, 0
-6.70,-1.77,-4.71, 0
-6.35,-2.16,-4.58, 0
-6.73,-2.22,-4.11, 0
-7.04,-2.32,-4.36, 0
-7.49,-2.32,-4.76, 0
-8.67,-2.10,-5.77, 0
-8.97,-1.43,-7.02, 0
-8.86,-0.88,-6.60, 0
-8.07,-0.21,-4.85, 0
-7.36,0.04,-4.28, 0
-7.35,0.17,-4.73, 0
-7.75,0.38,-5.54, 0
-8.13,0.36,-6.13, 0
-8.17,0.22,-6.91, 0
-7.82,0.60,-6.86, 0
-7.86,1.16,-6.12, 0
-7.84,1.54,-5.16, 0
-7.68,1.35,-5.25, 0
-7.75,0.95,-5.99, 0
-7.90,0.95,-6.50, 0
-7.99,1.77,-6.77, 0
-8.12,2.59,-6.48, 0
-7.74,3.11,-5.80, 0
-7.43,2.96,-5.36, 0
-7.18,2.62,-5.60, 0
-7.48,2.57,-5.97, 0
-7.53,2.75,-6.05, 0
-7.45,2.87,-5.86, 0
-7.48,2.88,-5.71, 0
-7.88,2.63,-5.74, 0
-7.94,2.10,-5.71, 0
-7.88,1.68,-5.80, 0
-7.77,1.52,-5.87, 0
-7.53,1.76,-5.61, 0
-7.85,2.08,-5.52, 0
-7.67,2.14,-5.68, 0
-7.47,1.66,-5.89, 0
-7.21,1.36,-6.26, 0
-7.41,1.60,-6.23, 0
-7.57,1.80,-6.36, 0
-8.81,2.57,-5.30, 0
-8.01,2.99,-5.38, 0
-8.71,2.22,-6.88, 0
-10.55,2.00,-7.66, 0
-9.85,1.86,-6.85, 0
-9.06,1.71,-6.09, 0
-8.54,1.82,-5.82, 0
-8.47,1.66,-6.06, 0
-8.77,1.23,-5.69, 0
-8.57,0.84,-4.48, 0
-8.08,0.58,-3.72, 0
-7.65,-0.42,-3.51, 0
-7.27,-1.27,-3.24, 0
-6.85,-2.05,-1.99, 0
-7.93,-1.81,-3.42, 0
-9.45,0.08,-3.88, 0
-10.74,2.95,-5.13, 0
-11.77,4.31,-5.70, 0
-10.46,4.33,-6.05, 0
-9.32,2.79,-5.13, 0
-7.98,0.86,-3.03, 0
-7.07,0.04,-2.61, 0
-7.00,0.68,-2.90, 0
-7.76,1.38,-3.25, 0
-8.11,1.83,-3.59, 0
-7.75,2.10,-3.51, 0
-7.29,2.24,-3.26, 0
-6.84,2.98,-3.20, 0
-6.78,3.59,-3.32, 0
-7.28,3.64,-3.28, 0
-8.21,2.84,-3.61, 0
-7.54,2.14,-4.41, 0
-7.17,1.45,-4.58, 0
-10.54,0.74,-3.92, 0
-13.62,2.07,-7.76, 0
-13.01,3.35,-10.83, 0
-9.31,3.17,-6.79, 0
-7.66,1.87,-0.53, 0
-7.85,0.75,-0.48, 0
-8.16,-0.30,-2.88, 0
-8.37,-1.51,-4.68, 0
-8.40,-1.49,-5.67, 0
-8.15,-0.26,-6.45, 0
-8.04,1.66,-5.88, 0
-7.73,2.20,-4.99, 0
-7.56,1.18,-4.77, 0
-7.59,-0.06,-4.95, 0
-7.33,-0.21,-5.25, 0
-8.04,1.13,-5.87, 0
-8.41,2.01,-6.53, 0
-9.15,1.88,-6.84, 0
-8.65,1.68,-6.03, 0
-7.87,1.46,-5.16, 0
-7.11,1.18,-4.50, 0
-7.37,1.05,-4.65, 0
-7.55,1.14,-5.45, 0
-7.70,1.37,-6.16, 0
-7.85,2.06,-6.11, 0
-7.76,2.70,-5.66, 0
-7.53,2.74,-5.43, 0
-7.51,2.44,-5.65, 0
-7.75,2.40,-5.71, 0
-7.56,2.32,-5.66, 0
-7.24,2.15,-5.15, 0
-7.26,2.27,-5.28, 0
-7.70,2.29,-5.83, 0
-7.92,1.96,-6.20, 0
-7.81,1.62,-6.19, 0
-7.55,1.60,-5.98, 0
-7.30,1.90,-5.94, 0
-7.07,2.40,-6.07, 0
-6.57,2.36,-6.47, 0
-10.30,2.68,-4.91, 0
-10.29,4.75,-4.99, 0
-10.88,5.20,-5.09, 0
-10.67,3.57,-6.20, 0
-9.88,0.14,-7.24, 0
-10.14,-2.90,-6.50, 0
-9.20,-3.57,-5.48, 0
-7.35,-1.19,-3.44, 0
-5.16,2.96,0.88, 0
-6.45,5.58,-0.33, 0
-10.44,5.25,-4.66, 0
-12.41,3.31,-8.12, 0
-11.35,1.25,-7.66, 0
-8.79,-0.23,-3.74, 0
-6.93,0.01,-1.58, 0
-6.80,1.04,-2.09, 0
-7.64,1.90,-3.99, 0
-8.36,2.28,-4.90, 0
-8.30,2.25,-4.32, 0
-7.86,2.22,-3.78, 0
-7.70,2.58,-3.61, 0
-7.89,3.28,-3.75, 0
-7.72,3.53,-3.74, 0
-7.58,3.54,-3.41, 0
-7.41,3.03,-3.22, 0
-7.30,2.45,-3.42, 0
-7.51,1.92,-3.73, 0
-8.18,1.60,-4.14, 0
-8.54,2.00,-4.41, 0
-8.91,2.66,-3.99, 0
-8.39,3.29,-3.73, 0
-8.44,3.89,-4.00, 0
-8.57,4.24,-4.74, 0
-8.59,3.62,-4.85, 0
-11.16,1.78,-4.77, 0
-12.04,1.80,-7.85, 0
-11.12,0.56,-9.39, 0
-9.39,0.48,-3.76, 0
-7.18,1.41,-1.46, 0
-7.19,1.59,-1.68, 0
-8.31,1.51,-4.71, 0
-9.24,0.22,-5.60, 0
-9.18,-0.90,-5.20, 0
-8.84,-1.32,-4.65, 0
-8.06,-0.82,-4.96, 0
-7.69,-0.28,-4.32, 0
-7.25,0.19,-4.60, 0
-7.48,-0.02,-5.52, 0
-8.46,-0.40,-5.42, 0
-8.52,-0.23,-5.40, 0
-8.02,0.62,-5.40, 0
-8.16,0.64,-5.75, 0
-8.22,0.75,-5.71, 0
-8.10,0.85,-5.41, 0
-7.93,1.04,-5.20, 0
-7.92,1.10,-5.13, 0
-7.75,1.64,-5.20, 0
-8.04,2.43,-5.47, 0
-8.17,3.11,-6.08, 0
-8.24,3.35,-5.99, 0
-8.26,3.06,-5.43, 0
-8.12,2.28,-4.88, 0
-7.63,1.66,-4.44, 0
-7.40,1.52,-4.68, 0
-7.68,1.68,-5.41, 0
-7.97,2.09,-5.71, 0
-7.91,2.63,-5.34, 0
-7.93,2.39,-4.75, 0
-7.52,1.65,-4.92, 0
-7.03,0.47,-5.65, 0
-9.43,-0.47,-4.76, 0
-8.53,0.89,-3.42, 0
-9.80,1.58,-3.18, 0
-11.51,2.30,-4.45, 0
-12.18,0.85,-7.59, 0
-12.04,-1.50,-9.98, 0
-10.20,-1.87,-8.36, 0
-7.44,-0.74,-4.73, 0
-5.90,0.20,-0.59, 0
-6.28,1.71,-0.03, 0
-7.97,2.33,-1.33, 0
-9.64,2.20,-3.07, 0
-10.56,2.28,-4.67, 0
-10.68,1.78,-5.55, 0
-10.24,0.65,-4.69, 0
-8.38,0.42,-2.76, 0
-6.99,0.76,-0.47, 0
-7.27,1.09,-0.64, 0
-8.85,0.94,-1.90, 0
-8.95,1.15,-1.98, 0
-8.35,0.94,-1.41, 0
-7.82,0.48,-1.85, 0
-8.19,0.04,-2.44, 0
-9.32,-0.56,-2.05, 0
-10.01,-1.02,-3.17, 0
-11.90,-2.32,-5.22, 0
-11.67,-2.43,-6.84, 0
-9.25,-2.10,-5.39, 0
-8.02,-2.49,-1.62, 0
-7.68,-1.51,-0.93, 0
-8.08,-0.25,-1.88, 0
-7.89,-0.34,-2.11, 0
-8.55,-2.49,-2.81, 0
-9.58,-4.22,-4.37, 0
-10.25,-4.28,-4.96, 0
-9.32,-2.68,-3.91, 0
-8.63,-1.83,-2.64, 0
-8.18,-1.57,-1.91, 0
-8.07,-2.00,-2.34, 0
-8.85,-2.89,-2.84, 0
-8.80,-3.14,-3.07, 0
-8.42,-3.30,-2.82, 0
-8.84,-3.08,-3.11, 0
-9.22,-3.12,-3.14, 0
-8.84,-3.54,-2.49, 0
-8.27,-3.97,-2.40, 0
-8.26,-3.84,-2.31, 0
-8.53,-3.78,-2.62, 0
-8.64,-3.85,-2.79, 0
-8.63,-3.99,-2.51, 0
-8.30,-4.01,-2.26, 0
-8.02,-3.81,-2.29, 0
-8.10,-4.01,-2.46, 0
-8.20,-4.46,-2.57, 0
-7.98,-4.75,-2.19, 0
-8.28,-4.78,-1.65, 0
-8.74,-4.88,-2.03, 0
-8.90,-5.06,-2.54, 0
-8.44,-5.17,-2.47, 0
-7.59,-5.00,-1.86, 0
-6.96,-4.57,-1.30, 0
-7.25,-4.37,-1.32, 0
-7.92,-4.57,-1.65, 0
-8.12,-5.08,-2.18, 0
-8.11,-5.80,-2.20, 0
-7.96,-6.16,-2.28, 0
-7.96,-5.73,-2.13, 0
-7.83,-4.98,-1.90, 0
-7.54,-4.87,-1.63, 0
-7.83,-5.50,-1.50, 0
-8.19,-5.78,-2.06, 0
-8.35,-5.87,-2.34, 0
-8.23,-6.00,-2.00, 0
-8.12,-5.93,-1.70, 0
-8.23,-5.64,-1.86, 0
-8.25,-5.74,-2.05, 0
-8.21,-5.98,-2.13, 0
-7.94,-5.87,-1.98, 0
-7.87,-5.52,-1.92, 0
-7.73,-5.27,-1.89, 0
-7.62,-4.99,-1.75, 0
-8.20,-4.77,-2.26, 0
-8.93,-4.70,-3.00, 0
-9.00,-5.16,-2.78, 0
-8.16,-5.65,-1.67, 0
-7.70,-5.94,-1.81, 0
-7.86,-5.90,-2.44, 0
-8.36,-5.31,-2.86, 0
-8.70,-4.58,-3.03, 0
-8.56,-4.28,-2.85, 0
-8.46,-4.09,-2.68, 0
-8.56,-3.98,-2.77, 0
-8.38,-3.62,-2.93, 0
-8.56,-3.44,-2.87, 0
-8.49,-3.20,-2.76, 0
-8.28,-3.01,-2.61, 0
-8.32,-2.88,-2.79, 0
-8.50,-2.87,-3.23, 0
-8.73,-3.15,-3.28, 0
-8.23,-2.93,-2.96, 0
-8.27,-2.60,-2.70, 0
-8.41,-2.29,-3.12, 0
-8.89,-2.14,-3.29, 0
-8.76,-1.69,-3.45, 0
-8.76,-1.34,-3.53, 0
-8.96,-1.21,-3.65, 0
-9.41,-1.36,-3.64, 0
-9.29,-0.86,-3.61, 0
-8.86,-0.71,-3.40, 0
-8.57,-0.33,-2.98, 0
-8.23,0.07,-2.80, 0
-8.95,0.18,-3.19, 0
-8.63,0.86,-3.43, 0
-8.67,0.81,-3.08, 0
-8.55,0.78,-2.80, 0
-8.20,1.08,-2.76, 0
-8.34,1.25,-3.04, 0
-9.22,1.60,-3.56, 0
-9.73,1.88,-3.78, 0
-9.53,1.59,-3.70, 0
-9.05,1.09,-3.38, 0
-8.64,0.69,-3.24, 0
-8.38,0.58,-3.08, 0
-8.64,0.86,-3.16, 0
-8.72,1.38,-3.59, 0
-8.77,1.52,-3.81, 0
-8.65,1.61,-3.87, 0
-8.17,1.91,-3.45, 0
-7.97,1.90,-3.27, 0
-8.20,1.96,-3.42, 0
-8.50,2.39,-3.55, 0
-8.47,2.92,-3.90, 0
-8.73,3.21,-3.61, 0
-8.29,3.74,-3.82, 0
-7.92,3.92,-3.39, 0
-11.62,2.18,-4.67, 0
-14.04,1.43,-8.36, 0
-10.95,0.16,-7.95, 0
-9.16,0.02,-4.02, 0
-7.98,1.47,-1.33, 0
-8.42,3.45,-1.55, 0
-8.84,3.09,-3.59, 0
-8.91,0.32,-4.86, 0
-8.60,-0.80,-5.24, 0
-8.74,-0.48,-5.32, 0
-7.99,0.46,-4.18, 0
-7.16,0.46,-3.68, 0
-7.01,-0.14,-4.03, 0
-7.97,-0.15,-4.82, 0
-8.67,0.27,-5.35, 0
-8.45,0.68,-5.11, 0
-8.16,1.55,-4.92, 0
-8.70,2.08,-5.26, 0
-8.48,2.46,-5.64, 0
-8.50,2.34,-5.82, 0
-8.08,1.87,-5.50, 0
-7.92,1.59,-5.14, 0
-7.51,1.74,-4.86, 0
-7.67,2.14,-4.77, 0
-7.70,2.44,-5.00, 0
-7.74,2.45,-4.96, 0
-7.20,2.25,-4.92, 0
-7.11,1.94,-4.98, 0
-7.30,1.68,-5.36, 0
-7.98,1.42,-5.66, 0
-7.95,1.61,-5.47, 0
-8.31,1.89,-5.58, 0
-7.65,2.67,-5.60, 0
-7.02,2.82,-5.69, 0
-9.37,2.27,-4.56, 0
-8.53,3.08,-4.07, 0
-9.06,3.54,-5.42, 0
-10.22,3.96,-7.42, 0
-10.40,3.38,-9.44, 0
-11.01,2.09,-10.39, 0
-10.14,1.92,-8.14, 0
-7.91,1.74,-3.01, 0
-5.31,-3.21,-1.42, 0
-6.77,-3.03,-3.57, 0
-7.20,0.80,-3.29, 0
-7.47,1.10,-0.97, 0
-7.52,-0.06,-1.90, 0
-7.88,-1.97,-2.80, 0
-9.87,-1.17,-5.38, 0
-12.00,2.91,-6.74, 0
-11.86,5.68,-6.77, 0
-10.39,5.49,-5.75, 0
-9.14,4.08,-4.58, 0
-7.35,2.59,-3.06, 0
-6.94,1.61,-2.40, 0
-7.05,1.72,-2.93, 0
-7.16,2.18,-3.59, 0
-7.29,2.67,-3.88, 0
-7.11,2.91,-3.80, 0
-6.94,2.91,-3.91, 0
-7.19,2.76,-4.14, 0
-8.69,2.64,-4.13, 0
-8.10,3.15,-4.47, 0
-7.83,3.75,-4.42, 0
-7.63,4.27,-4.39, 0
-7.62,4.68,-4.32, 0
-8.23,4.89,-4.33, 0
-8.75,5.43,-4.69, 0
-8.29,5.76,-4.80, 0
-10.20,3.78,-4.22, 0
-11.04,2.75,-6.34, 0
-11.45,0.41,-8.05, 0
-10.07,-1.94,-5.55, 0
-8.49,-1.95,-3.04, 0
-7.75,1.45,-1.96, 0
-7.85,3.32,-2.90, 0
-8.19,1.40,-4.39, 0
-9.05,-0.58,-5.33, 0
-8.64,-0.90,-5.96, 0
-8.01,-0.06,-4.39, 0
-7.85,0.91,-3.15, 0
-7.47,1.84,-4.05, 0
-7.82,2.00,-5.17, 0
-8.69,1.60,-5.44, 0
-8.80,1.21,-4.81, 0
-8.25,1.13,-4.30, 0
-7.76,1.38,-4.67, 0
-7.96,1.50,-5.26, 0
-8.36,1.56,-5.35, 0
-7.87,1.60,-5.51, 0
-7.97,1.60,-5.43, 0
-7.99,1.89,-5.19, 0
-7.71,2.16,-5.08, 0
-7.81,2.51,-5.16, 0
-7.86,3.07,-5.27, 0
-7.73,3.22,-5.25, 0
-7.70,2.72,-4.77, 0
-7.51,1.74,-4.65, 0
-7.92,0.66,-4.45, 0
-7.60,0.81,-4.53, 0
-8.17,1.63,-4.82, 0
-8.24,2.28,-5.08, 0
-7.31,1.14,-6.32, 0
-8.13,0.60,-4.34, 0
-7.81,2.13,-4.31, 0
-10.20,4.29,-5.06, 0
-11.88,5.43,-6.96, 0
-12.16,3.36,-9.64, 0
-11.79,-0.21,-10.45, 0
-10.04,-1.74,-7.62, 0
-6.74,-2.52,-0.90, 0
-4.14,-2.94,1.00, 0
-4.63,-2.36,-0.63, 0
-5.91,-0.87,-2.06, 0
-7.83,1.53,-3.71, 0
-10.57,3.89,-5.77, 0
-12.21,5.03,-7.47, 0
-11.77,4.44,-7.75, 0
-9.35,3.65,-5.39, 0
-7.68,3.37,-2.42, 0
-7.20,2.76,-1.63, 0
-8.23,2.11,-3.59, 0
-8.63,1.83,-4.85, 0
-8.66,1.90,-4.74, 0
-7.97,1.67,-3.77, 0
-6.25,1.60,-3.00, 0
-6.72,1.09,-3.25, 0
-6.68,1.78,-4.01, 0
-7.51,2.38,-4.78, 0
-8.01,2.81,-5.13, 0
-8.28,2.94,-4.76, 0
-8.38,2.71,-4.27, 0
-8.05,2.80,-4.31, 0
-8.05,2.99,-4.75, 0
-8.47,3.52,-4.89, 0
-8.29,4.11,-5.00, 0
-7.61,4.19,-4.60, 0
-10.67,2.01,-4.28, 0
-10.56,1.73,-8.16, 0
-12.36,-0.41,-8.56, 0
-10.79,-0.76,-7.43, 0
-7.87,0.37,-3.54, 0
-6.75,2.13,-1.44, 0
-6.48,3.82,-2.59, 0
-7.05,2.46,-3.48, 0
-9.22,-0.39,-5.34, 0
-9.16,-2.09,-6.41, 0
-8.12,-2.43,-5.94, 0
-7.31,-2.17,-4.86, 0
-7.53,-1.01,-3.99, 0
-8.34,0.72,-4.51, 0
-8.71,1.41,-5.37, 0
-8.47,1.31,-6.00, 0
-8.58,0.75,-6.30, 0
-8.86,-0.02,-6.50, 0
-8.28,-0.54,-6.29, 0
-7.93,-0.51,-5.65, 0
-7.87,0.08,-4.98, 0
-7.77,0.80,-4.95, 0
-7.77,1.15,-5.25, 0
-7.58,1.33,-5.76, 0
-7.76,1.67,-6.22, 0
-7.85,1.95,-5.86, 0
-7.37,1.92,-5.53, 0
-9.13,1.12,-4.35, 0
-8.63,1.47,-0.97, 0
-7.68,1.89,-0.73, 0
-9.06,0.43,-4.56, 0
-10.22,-2.25,-7.70, 0
-9.93,-3.41,-7.37, 0
-9.87,-2.07,-6.26, 0
-10.27,0.41,-5.40, 0
-9.94,2.23,-3.90, 0
-8.98,1.70,-3.07, 0
-8.47,0.11,-3.35, 0
-7.57,-0.59,-3.64, 0
-6.77,-0.11,-3.57, 0
-6.56,1.30,-3.38, 0
-7.30,1.75,-3.20, 0
-8.72,1.75,-4.03, 0
-9.48,1.70,-5.20, 0
-9.79,1.27,-5.53, 0
-9.77,1.43,-5.05, 0
-8.91,1.62,-4.60, 0
-10.21,3.50,-5.31, 0
-9.36,2.41,-5.75, 0
-8.94,1.83,-5.31, 0
-9.09,1.95,-5.08, 0
-8.75,1.85,-4.70, 0
-8.80,1.70,-4.61, 0
-8.62,1.84,-4.62, 0
-8.16,2.09,-4.19, 0
-7.62,2.30,-3.57, 0
-7.60,2.38,-3.30, 0
-7.93,2.76,-3.51, 0
-7.93,3.42,-3.83, 0
-7.91,3.61,-3.80, 0
-7.78,3.38,-3.16, 0
-7.47,2.69,-2.66, 0
-7.38,1.84,-2.96, 0
-7.71,1.20,-3.83, 0
-8.49,0.94,-4.30, 0
-8.78,1.83,-5.01, 0
-11.02,3.21,-5.91, 0
-12.06,4.36,-7.76, 0
-9.42,2.88,-6.26, 0
-7.09,1.14,-2.47, 0
-6.17,0.85,-1.46, 0
-8.50,1.33,-3.43, 0
-9.46,1.31,-4.61, 0
-9.60,0.22,-4.32, 0
-7.88,-0.23,-4.10, 0
-7.21,1.31,-3.88, 0
-7.76,3.42,-5.61, 0
-8.31,3.81,-5.76, 0
-8.20,3.34,-6.04, 0
-7.75,2.37,-6.61, 0
-8.06,1.33,-6.20, 0
-7.95,0.54,-5.72, 0
-7.72,0.82,-5.87, 0
-7.85,1.26,-6.17, 0
-8.11,1.97,-6.34, 0
-8.09,2.65,-6.17, 0
-7.50,2.98,-5.65, 0
-7.29,3.29,-5.11, 0
-7.35,4.04,-5.15, 0
-7.65,4.56,-5.42, 0
-7.98,4.72,-5.52, 0
-8.27,4.47,-5.80, 0
-8.06,4.11,-5.58, 0
-8.04,3.34,-5.45, 0
-8.02,2.64,-5.27, 0
-7.63,2.29,-5.38, 0
-7.31,2.54,-5.48, 0
-7.42,3.01,-5.37, 0
-7.51,3.61,-5.40, 0
-7.52,4.05,-5.32, 0
-7.85,4.15,-5.28, 0
-7.72,4.15,-4.79, 0
-7.66,3.84,-4.47, 0
-7.77,3.91,-4.01, 0
-7.69,3.71,-4.29, 0
-7.48,3.86,-4.31, 0
-7.41,4.27,-4.35, 0
-7.36,4.65,-4.39, 0
-7.36,4.16,-5.12, 0
-9.70,2.82,-4.48, 0
-8.77,2.76,-1.44, 0
-8.38,3.85,-1.63, 0
-9.47,2.68,-4.23, 0
-10.36,0.30,-6.94, 0
-10.25,-1.70,-8.10, 0
-10.03,-1.18,-7.51, 0
-9.40,-0.07,-5.51, 0
-8.19,0.09,-3.33, 0
-7.07,0.22,-3.15, 0
-7.01,1.34,-3.30, 0
-7.67,2.21,-3.36, 0
-9.11,2.70,-4.03, 0
-10.10,2.97,-4.96, 0
-10.15,2.84,-5.35, 0
-8.83,2.65,-4.50, 0
-7.54,3.02,-3.26, 0
-6.98,3.28,-2.69, 0
-7.32,3.24,-2.84, 0
-7.89,3.33,-3.39, 0
-8.32,3.52,-3.44, 0
-8.15,3.32,-3.38, 0
-7.78,3.04,-3.22, 0
-7.65,3.23,-3.30, 0
-7.71,3.51,-3.67, 0
-7.32,3.56,-3.96, 0
-7.53,3.51,-3.88, 0
-7.94,3.77,-3.96, 0
-7.70,3.65,-4.31, 0
-7.63,3.73,-3.65, 0
-7.85,4.06,-2.80, 0
-12.43,2.60,-3.33, 0
-13.62,1.86,-7.44, 0
-11.40,1.61,-8.44, 0
-8.83,0.65,-5.36, 0
-7.94,0.30,-2.46, 0
-8.49,2.15,-1.97, 0
-9.28,3.37,-2.40, 0
-9.85,2.00,-4.12, 0
-8.76,0.15,-5.58, 0
-8.16,-1.28,-6.03, 0
-7.65,-1.10,-5.57, 0
-7.25,-1.04,-4.93, 0
-7.52,-1.23,-4.98, 0
-7.63,-0.27,-4.62, 0
-7.62,1.83,-4.51, 0
-8.07,3.35,-5.45, 0
-9.10,2.95,-6.57, 0
-9.07,2.26,-6.58, 0
-8.51,1.44,-5.38, 0
-8.00,1.04,-4.46, 0
-7.96,0.91,-4.28, 0
-8.28,1.03,-4.72, 0
-8.49,1.35,-5.24, 0
-8.70,1.43,-5.43, 0
-8.59,1.29,-5.34, 0
-8.23,1.28,-4.72, 0
-8.10,1.18,-4.45, 0
-8.45,1.42,-4.83, 0
-8.77,1.56,-5.17, 0
-8.53,1.43,-5.01, 0
-8.47,1.39,-4.63, 0
-8.54,1.30,-4.36, 0
-8.65,0.85,-4.55, 0
-8.50,-0.06,-4.72, 0
-8.35,-0.73,-4.72, 0
-8.43,-0.85,-5.11, 0
-8.75,-0.97,-5.07, 0
-8.76,-0.92,-4.51, 0
-8.39,-0.96,-4.35, 0
-8.84,-1.27,-4.78, 0
-9.41,-2.67,-5.65, 0
-10.34,-3.53,-4.93, 0
-8.65,-2.30,-2.80, 0
-8.35,-0.56,-2.46, 0
-8.55,-0.03,-3.73, 0
-9.55,-1.70,-4.73, 0
-9.02,-3.33,-4.19, 0
-7.80,-2.84,-2.65, 0
-8.81,-0.92,-1.87, 0
-9.56,1.05,-2.19, 0
-9.60,0.81,-2.45, 0
-9.17,-1.03,-1.96, 0
-8.14,-2.71,-2.01, 0
-9.27,-3.48,-2.56, 0
-10.38,-3.28,-4.08, 0
-10.11,-3.08,-3.73, 0
-8.86,-3.04,-2.34, 0
-8.33,-2.68,-1.65, 0
-8.98,-2.78,-1.76, 0
-9.47,-3.23,-2.38, 0
-8.87,-4.39,-2.64, 0
-8.32,-5.10,-2.49, 0
-7.83,-5.09,-2.54, 0
-7.24,-4.47,-0.81, 0
-9.04,-3.54,-1.69, 0
-9.29,-3.21,-1.17, 0
-9.17,-3.68,-1.16, 0
-8.68,-4.68,-1.09, 0
-7.84,-4.55,-0.74, 0
-8.03,-4.60,-0.59, 0
-7.77,-4.58,-0.34, 0
-7.63,-4.99,-0.52, 0
-7.16,-5.22,-0.21, 0
-7.36,-5.43,-0.10, 0
-7.14,-5.65,-0.10, 0
-6.77,-5.61,0.44, 0
-6.97,-5.68,0.64, 0
-6.93,-6.05,0.40, 0
-6.68,-6.26,0.18, 0
-6.68,-6.46,0.59, 0
-6.76,-6.39,0.39, 0
-6.24,-6.24,0.71, 0
-5.91,-5.96,1.51, 0
-5.93,-5.87,1.62, 0
-6.11,-5.69,1.36, 0
-6.71,-5.66,1.29, 0
-6.79,-5.86,1.45, 0
-6.83,-6.64,1.55, 0
-6.35,-6.97,1.67, 0
-6.21,-7.21,2.06, 0
-6.20,-7.46,2.41, 0
-6.47,-7.22,2.24, 0
-6.84,-6.90,1.90, 0
-6.87,-6.81,2.43, 0
-6.14,-6.97,2.74, 0
-6.16,-7.45,2.55, 0
-6.59,-7.57,2.21, 0
-6.92,-7.32,2.16, 0
-6.85,-7.33,2.27, 0
-6.30,-7.72,2.82, 0
-6.40,-7.81,2.58, 0
-6.67,-7.28,2.09, 0
-6.79,-7.25,2.02, 0
-6.52,-7.63,1.86, 0
-6.26,-7.69,2.08, 0
-6.39,-7.46,2.26, 0
-6.76,-7.30,1.79, 0
-6.72,-7.33,1.68, 0
-6.41,-7.29,2.15, 0
-6.46,-6.94,1.90, 0
-6.66,-6.60,1.44, 0
-6.75,-6.50,1.62, 0
-6.56,-6.55,1.87, 0
-6.85,-6.91,1.70, 0
-6.84,-6.66,1.28, 0
-6.86,-6.57,1.33, 0
-6.77,-6.43,1.21, 0
-6.98,-6.31,1.14, 0
-6.99,-6.41,0.89, 0
-7.21,-5.99,0.52, 0
-6.97,-5.89,0.96, 0
-6.73,-5.75,1.08, 0
-7.00,-5.59,1.02, 0
-6.96,-5.48,0.55, 0
-7.55,-4.82,0.38, 0
-8.00,-4.39,0.48, 0
-8.20,-4.63,0.30, 0
-7.90,-4.62,-0.45, 0
-8.43,-4.46,-0.13, 0
-8.40,-4.27,-0.20, 0
-8.34,-3.95,-0.32, 0
-8.72,-3.60,-0.17, 0
-8.60,-3.26,-0.66, 0
-8.54,-3.53,-0.41, 0
-8.53,-3.46,-0.87, 0
-8.67,-3.30,-0.90, 0
-8.55,-2.54,-0.27, 0
-8.70,-1.71,-0.30, 0
-9.27,-0.97,-1.71, 0
-9.76,-0.73,-2.01, 0
-9.32,-0.69,-1.68, 0
-8.71,-0.43,-1.18, 0
-8.35,-0.23,-1.18, 0
-8.69,0.19,-1.97, 0
-9.38,0.81,-2.29, 0
-9.27,1.09,-2.16, 0
-9.23,1.66,-2.44, 0
-9.20,1.55,-2.69, 0
-9.41,1.32,-3.06, 0
-9.47,1.90,-3.16, 0
-9.51,2.38,-3.37, 0
-9.22,2.28,-3.29, 0
-9.23,2.07,-3.81, 0
-9.38,1.49,-4.55, 0
-8.44,1.28,-4.21, 0
-7.49,1.62,-3.66, 0
-13.16,-2.05,-7.27, 0
-17.38,-2.27,-10.30, 0
-12.84,-3.65,-8.82, 0
-9.41,-3.60,-3.65, 0
-8.33,-1.18,-3.07, 0
-7.44,2.05,-2.66, 0
-6.34,2.45,-1.00, 0
-6.19,1.38,-1.22, 0
-7.96,-0.42,-3.89, 0
-9.44,-1.79,-6.93, 0
-9.93,-1.83,-7.73, 0
-9.27,-0.98,-5.87, 0
-8.10,-0.17,-3.69, 0
-7.49,0.57,-3.26, 0
-7.41,0.08,-4.21, 0
-8.06,-0.40,-5.63, 0
-8.56,-0.90,-6.46, 0
-8.28,-0.25,-6.02, 0
-7.94,1.31,-4.97, 0
-8.02,2.45,-4.05, 0
-8.26,2.38,-4.28, 0
-8.51,1.54,-5.31, 0
-8.83,1.39,-5.71, 0
-8.63,1.68,-5.39, 0
-8.27,2.18,-4.95, 0
-8.15,2.30,-5.04, 0
-8.20,1.80,-5.14, 0
-7.93,1.74,-5.29, 0
-7.20,1.69,-5.19, 0
-7.00,1.73,-4.73, 0
-6.82,2.90,-4.59, 0
-6.80,3.70,-5.08, 0
-7.97,3.99,-5.71, 0
-8.92,3.81,-5.37, 0
-10.25,1.96,-2.71, 0
-8.57,1.48,-1.02, 0
-7.32,1.03,-2.98, 0
-7.96,-0.51,-6.49, 0
-9.02,-1.63,-7.45, 0
-9.70,-0.78,-6.51, 0
-10.41,2.00,-5.88, 0
-11.48,3.64,-5.60, 0
-11.41,2.32,-5.75, 0
-9.96,0.01,-5.44, 0
-9.00,0.03,-4.77, 0
-7.61,1.02,-3.64, 0
-6.75,1.47,-3.00, 0
-6.57,1.61,-2.55, 0
-7.29,1.06,-2.20, 0
-8.25,0.74,-2.44, 0
-8.94,1.20,-3.15, 0
-9.32,2.77,-4.24, 0
-10.05,3.90,-4.88, 0
-10.41,4.85,-5.07, 0
-9.81,4.57,-4.96, 0
-8.60,3.33,-3.88, 0
-7.57,2.32,-2.93, 0
-7.12,1.91,-2.69, 0
-7.07,2.24,-2.97, 0
-7.76,2.70,-3.22, 0
-7.61,3.04,-3.57, 0
-7.34,3.08,-3.52, 0
-7.73,3.33,-3.55, 0
-7.19,3.51,-3.70, 0
-7.40,3.94,-3.62, 0
-7.72,3.85,-3.66, 0
-8.43,3.38,-4.01, 0
-9.13,3.68,-4.86, 0
-11.16,3.60,-6.22, 0
-11.98,3.87,-8.04, 0
-11.63,3.40,-7.18, 0
-9.24,2.76,-5.16, 0
-8.41,2.34,-2.98, 0
-6.97,1.00,-1.73, 0
-6.70,-0.47,-1.77, 0
-7.20,-1.49,-2.28, 0
-8.57,-1.05,-3.48, 0
-9.82,0.02,-4.95, 0
-9.97,0.79,-6.17, 0
-9.09,0.86,-6.06, 0
-8.08,0.78,-4.73, 0
-7.64,0.30,-3.86, 0
-7.40,-0.07,-3.96, 0
-8.02,0.23,-5.03, 0
-8.82,1.23,-5.83, 0
-8.83,2.21,-5.68, 0
-8.15,2.63,-5.24, 0
-8.01,2.04,-4.96, 0
-8.03,1.56,-5.08, 0
-7.90,1.25,-5.25, 0
-7.98,1.31,-5.25, 0
-8.14,1.48,-5.25, 0
-8.03,1.95,-5.22, 0
-8.01,2.09,-5.56, 0
-8.09,2.32,-5.73, 0
-8.24,2.54,-5.65, 0
-8.12,2.60,-5.14, 0
-7.63,2.20,-5.12, 0
-7.63,1.77,-5.25, 0
-7.80,1.31,-5.67, 0
-8.01,1.16,-5.95, 0
-7.91,1.35,-5.74, 0
-7.67,1.51,-5.33, 0
-7.69,1.72,-5.16, 0
-7.59,2.11,-5.13, 0
-7.55,2.28,-5.49, 0
-7.65,1.87,-6.12, 0
-7.49,1.18,-6.99, 0
-7.67,0.90,-7.16, 0
-8.51,0.99,-5.56, 0
-9.09,2.27,-3.52, 0
-9.63,3.94,-3.80, 0
-10.50,2.56,-6.84, 0
-10.66,0.08,-8.26, 0
-9.92,-1.25,-8.40, 0
-9.08,-1.08,-6.35, 0
-6.82,0.70,-3.70, 0
-5.60,1.89,-2.06, 0
-5.76,1.87,-1.41, 0
-6.96,0.01,-1.84, 0
-8.26,-2.16,-3.13, 0
-8.87,-2.72,-4.10, 0
-9.92,-0.79,-4.89, 0
-10.88,3.33,-5.45, 0
-11.33,5.95,-5.86, 0
-10.42,6.13,-5.85, 0
-8.81,4.18,-5.07, 0
-7.72,1.80,-3.71, 0
-7.75,0.76,-3.48, 0
-8.40,1.20,-4.41, 0
-8.31,1.57,-4.99, 0
-8.28,0.91,-4.56, 0
-7.77,0.08,-3.94, 0
-6.57,0.18,-4.26, 0
-8.49,0.34,-4.99, 0
-7.71,2.56,-4.44, 0
-7.86,2.83,-3.88, 0
-7.70,3.07,-4.09, 0
-8.00,3.41,-4.61, 0
-7.66,3.55,-3.81, 0
-7.08,3.00,-3.32, 0
-7.39,2.47,-3.64, 0
-8.02,3.28,-4.11, 0
-7.88,4.33,-4.82, 0
-7.37,4.29,-4.61, 0
-9.10,2.61,-4.42, 0
-10.77,2.93,-7.51, 0
-13.80,0.27,-9.22, 0
-11.93,0.12,-10.17, 0
-7.26,0.43,-5.25, 0
-5.29,2.40,-0.11, 0
-6.69,3.51,0.45, 0
-8.35,2.02,-2.91, 0
-9.38,-0.97,-5.79, 0
-8.81,-2.22,-5.55, 0
-7.66,-1.09,-4.75, 0
-7.67,0.73,-5.01, 0
-8.33,1.65,-5.74, 0
-8.49,1.39,-5.69, 0
-8.41,1.03,-5.16, 0
-8.32,0.09,-5.24, 0
-8.17,-0.50,-5.13, 0
-8.42,-0.16,-5.07, 0
-8.52,0.63,-5.17, 0
-8.25,1.12,-5.10, 0
-8.39,0.82,-5.04, 0
-8.41,0.11,-5.38, 0
-8.43,-0.78,-5.60, 0
-8.85,-1.58,-5.32, 0
-8.51,-1.55,-4.76, 0
-7.99,-0.61,-4.16, 0
-8.04,0.17,-4.74, 0
-8.44,0.38,-6.18, 0
-8.67,-0.01,-6.73, 0
-8.07,-0.10,-6.06, 0
-7.84,0.17,-5.30, 0
-7.61,0.60,-5.29, 0
-7.57,1.05,-5.65, 0
-7.73,1.01,-5.72, 0
-7.73,0.58,-5.84, 0
-7.90,0.00,-5.91, 0
-7.99,-0.19,-5.92, 0
-8.15,0.34,-5.92, 0
-8.30,1.24,-5.72, 0
-8.00,1.89,-5.67, 0
-8.59,1.90,-5.81, 0
-8.25,1.63,-6.01, 0
-7.73,1.39,-5.82, 0
-7.96,1.39,-5.50, 0
-8.18,1.62,-5.58, 0
-8.20,1.78,-5.46, 0
-8.38,1.74,-4.99, 0
-8.26,1.68,-4.58, 0
-8.24,1.63,-4.63, 0
-8.62,1.54,-5.17, 0
-8.81,0.99,-4.85, 0
-8.13,1.17,-4.48, 0
-8.34,1.74,-3.84, 0
-9.26,0.73,-4.51, 0
-9.38,-1.96,-5.65, 0
-9.41,-4.25,-5.42, 0
-7.87,-5.03,-4.26, 0
-6.33,-3.38,-3.17, 0
-7.39,-0.25,-3.20, 0
-9.77,2.87,-4.53, 0
-10.79,5.09,-5.64, 0
-10.30,4.91,-6.02, 0
-9.88,3.01,-4.63, 0
-9.64,1.68,-3.53, 0
-9.52,1.89,-3.94, 0
-8.87,2.16,-4.65, 0
-7.48,2.66,-3.94, 0
-7.06,2.36,-2.63, 0
-6.54,2.66,-2.42, 0
-7.12,2.76,-2.85, 0
-7.80,2.77,-2.63, 0
-7.43,3.31,-2.33, 0
-7.70,2.90,-2.63, 0
-12.67,-0.28,-3.92, 0
-12.47,-0.86,-9.79, 0
-12.78,0.36,-12.33, 0
-8.31,1.94,-7.44, 0
-6.73,1.84,-2.08, 0
-4.61,0.45,2.82, 0
-7.37,-1.18,-0.96, 0
-8.85,-3.02,-7.06, 0
-9.12,-3.82,-10.54, 0
-9.02,-1.72,-8.49, 0
-7.83,2.55,-4.35, 0
-7.27,4.68,-2.12, 0
-7.85,3.93,-3.31, 0
-8.77,1.81,-5.39, 0
-9.05,0.53,-5.63, 0
-8.75,-0.22,-4.57, 0
-8.19,0.18,-3.43, 0
-8.07,0.86,-3.31, 0
-8.57,1.48,-4.32, 0
-8.75,1.74,-4.67, 0
-8.50,1.84,-4.53, 0
-8.26,1.69,-4.35, 0
-8.49,1.67,-4.46, 0
-8.94,1.32,-4.79, 0
-8.94,0.74,-4.90, 0
-8.70,0.08,-4.90, 0
-8.34,-0.44,-4.84, 0
-8.02,-0.76,-4.89, 0
-7.76,-0.52,-5.14, 0
-7.87,0.30,-5.24, 0
-8.15,0.57,-4.96, 0
-7.79,0.62,-5.07, 0
-6.96,-0.94,-5.54, 0
-6.47,-4.65,-4.79, 0
-8.38,-2.21,5.56, 0
-8.98,1.44,3.58, 0
-13.26,-1.25,-3.12, 0
-12.82,-2.93,-11.27, 0
-14.43,-1.70,-10.50, 0
-9.71,3.10,-4.95, 0
-8.39,6.11,-1.06, 0
-8.16,5.45,-0.74, 0
-7.52,1.46,-2.88, 0
-6.61,-2.05,-3.27, 0
-4.23,-2.56,0.21, 0
-3.57,-1.68,0.57, 0
-4.90,0.09,0.25, 0
-6.74,1.84,-0.52, 0
-7.63,2.50,-1.94, 0
-7.48,1.84,-3.36, 0
-10.44,-4.54,-1.39, 0
-8.31,-1.90,-3.84, 0
-9.76,0.20,-3.99, 0
-10.32,1.11,-1.29, 0
-8.87,3.46,-0.91, 0
-6.25,3.86,-0.58, 0
-5.91,0.29,0.65, 0
-8.96,-2.29,-0.83, 0
-9.52,-1.05,-2.97, 0
-8.38,0.34,-3.13, 0
-7.69,0.97,-1.88, 0
-7.70,1.78,-0.75, 0
-8.19,1.79,-0.79, 0
-8.60,0.64,-0.98, 0
-8.38,0.15,0.36, 0
-9.07,1.14,0.07, 0
-10.83,4.10,-1.20, 0
-15.70,7.32,-2.31, 0
-16.62,9.33,-3.19, 0
-15.13,7.60,-3.67, 0
-14.39,6.39,-3.97, 0
-13.58,3.76,-4.30, 0
-14.02,3.88,-4.72, 0
-12.65,4.19,-5.44, 0
-10.37,2.70,-4.11, 0
-8.59,0.64,-1.37, 0
-6.27,1.35,-1.67, 0
-6.49,2.93,-1.73, 0
-6.32,3.21,-2.64, 0
-6.89,3.12,-3.09, 0
-8.33,3.08,-5.20, 0
-8.53,3.73,-4.25, 0
-7.98,2.81,-2.03, 0
-8.24,2.34,-2.13, 0
-8.38,2.48,-2.89, 0
-9.53,3.28,-3.37, 0
-9.78,4.06,-3.25, 0
-10.23,3.79,-3.65, 0
-9.61,3.80,-3.61, 0
-9.13,3.95,-3.64, 0
-8.71,3.91,-3.63, 0
-8.44,3.70,-3.35, 0
-8.22,3.46,-3.35, 0
-8.48,3.15,-3.53, 0
-8.37,3.15,-3.27, 0
-8.31,3.47,-3.50, 0
-8.48,3.41,-3.28, 0
-8.43,3.35,-3.19, 0
-8.26,3.25,-2.89, 0
-8.69,3.23,-3.25, 0
-8.82,3.45,-3.49, 0
-8.82,3.56,-3.53, 0
-8.56,3.33,-3.09, 0
-8.69,3.21,-3.33, 0
-8.69,3.15,-3.42, 0
-8.63,3.10,-3.45, 0
-8.68,3.16,-3.46, 0
-8.56,3.29,-3.31, 0
-8.49,3.32,-3.26, 0
-8.61,3.56,-3.34, 0
-8.60,3.54,-3.25, 0
-8.62,3.78,-3.31, 0
-8.70,3.83,-3.34, 0
-8.79,3.30,-3.42, 0
-8.88,3.20,-3.43, 0
-9.02,2.75,-3.30, 0
-8.92,3.13,-3.28, 0
-8.84,3.25,-3.09, 0
-8.76,3.13,-3.01, 0
-6.91,1.24,-4.07, 0
-8.75,2.94,-2.80, 0
-9.09,2.51,-4.01, 0
-9.14,3.30,-3.43, 0
-8.75,3.48,-2.79, 0
-8.65,3.48,-3.32, 0
-8.71,3.11,-3.06, 0
-8.94,3.37,-2.54, 0
-9.13,3.41,-2.56, 0
-9.30,3.24,-2.23, 0
-9.68,2.80,-2.51, 0
-9.08,2.99,-2.40, 0
-9.21,2.72,-1.33, 0
-9.25,2.31,-1.64, 0
-10.17,1.84,-2.56, 0
-10.49,1.67,-2.77, 0
-10.69,1.50,-2.36, 0
-10.22,1.12,-1.95, 0
-10.44,0.78,-2.24, 0
-12.45,1.79,-3.61, 0
-10.44,1.37,-2.77, 0
-9.30,0.30,-1.29, 0
-9.65,-0.20,-1.36, 0
-12.52,0.77,-3.66, 0
-12.34,0.56,-4.39, 0
-11.07,0.30,-3.01, 0
-10.05,-0.34,-2.19, 0
-9.57,-1.11,-1.92, 0
-10.20,-1.40,-2.42, 0
-10.82,-0.70,-3.66, 0
-10.20,-0.68,-3.11, 0
-9.81,-0.35,-2.39, 0
-9.67,-0.38,-2.41, 0
-9.66,-0.52,-2.94, 0
-9.35,-1.23,-3.58, 0
-9.44,-1.21,-3.37, 0
-8.53,-1.32,-2.81, 0
-7.80,-1.09,-2.42, 0
-7.02,-0.73,-2.02, 0
-6.79,-0.66,-1.95, 0
-6.61,-0.58,-1.98, 0
-6.76,-0.80,-2.48, 0
-7.22,-0.66,-2.68, 0
-7.97,-0.76,-3.02, 0
-8.49,-0.44,-3.63, 0
-9.01,-0.04,-3.88, 0
-8.94,0.12,-4.19, 0
-8.82,0.01,-4.49, 0
-8.58,-0.29,-4.71, 0
-7.70,-0.71,-4.36, 0
-6.80,-1.05,-3.94, 0
-6.23,-0.91,-3.33, 0
-6.04,-0.57,-2.84, 0
-6.17,-0.33,-2.62, 0
-6.78,-0.25,-2.57, 0
-7.56,-0.91,-3.09, 0
-8.69,-1.14,-3.81, 0
-9.20,-0.59,-4.95, 0
-9.26,-0.33,-5.45, 0
-9.12,0.37,-5.98, 0
-9.29,1.21,-6.36, 0
-9.28,1.57,-6.64, 0
-9.57,1.21,-6.45, 0
-9.20,0.86,-6.10, 0
-8.13,0.49,-5.59, 0
-7.71,0.30,-5.04, 0
-7.13,0.20,-5.06, 0
-7.41,-0.15,-5.25, 0
-7.91,-0.16,-5.94, 0
-7.90,0.12,-6.14, 0
-7.80,0.53,-5.85, 0
-7.79,1.27,-6.00, 0
-7.90,1.94,-6.45, 0
-7.91,2.22,-6.53, 0
-7.88,2.24,-6.16, 0
-8.05,2.15,-5.86, 0
-8.62,1.04,-4.73, 0
-8.67,0.93,-3.73, 0
-8.20,1.56,-2.99, 0
-8.27,1.35,-3.79, 0
-8.94,0.34,-4.50, 0
-8.97,-1.00,-4.77, 0
-9.10,-0.38,-5.65, 0
-9.93,1.20,-5.54, 0
-10.13,2.65,-3.91, 0
-9.82,2.74,-2.54, 0
-10.08,2.20,-2.62, 0
-9.81,2.19,-3.75, 0
-9.03,2.34,-4.08, 0
-8.18,2.49,-3.19, 0
-7.61,2.52,-2.16, 0
-7.81,2.15,-1.41, 0
-7.91,2.19,-1.91, 0
-8.26,2.33,-2.76, 0
-8.50,2.54,-3.19, 0
-8.55,2.70,-3.15, 0
-8.91,2.72,-2.92, 0
-9.24,2.89,-2.91, 0
-9.20,2.66,-2.91, 0
-8.78,2.29,-2.78, 0
-8.52,1.90,-2.15, 0
-8.29,1.84,-1.63, 0
-8.28,2.10,-1.77, 0
-8.43,2.38,-2.31, 0
-8.38,2.50,-2.42, 0
-8.30,2.54,-2.24, 0
-8.42,2.58,-2.15, 0
-8.35,2.58,-2.48, 0
-8.48,2.51,-2.19, 0
-8.70,2.39,-2.27, 0
-9.22,1.68,-2.74, 0
-9.16,0.61,-3.38, 0
-9.20,0.34,-3.31, 0
-9.55,0.63,-4.11, 0
-10.55,0.62,-5.81, 0
-13.23,1.40,-7.83, 0
-11.82,3.24,-7.17, 0
-7.69,2.94,-1.85, 0
-5.98,1.89,0.50, 0
-7.18,1.20,-2.31, 0
-8.70,0.88,-5.21, 0
-9.09,0.99,-6.11, 0
-9.28,2.07,-5.33, 0
-8.26,2.82,-4.97, 0
-7.78,3.15,-4.80, 0
-7.84,3.20,-4.52, 0
-7.81,3.26,-4.71, 0
-7.74,2.42,-5.12, 0
-7.89,1.75,-5.78, 0
-8.23,0.34,-6.00, 0
-8.21,0.06,-5.42, 0
-7.59,0.70,-5.02, 0
-7.96,1.88,-5.01, 0
-7.89,1.95,-5.89, 0
-8.20,1.85,-6.03, 0
-8.26,2.40,-5.80, 0
-8.15,2.56,-5.28, 0
-8.04,2.17,-5.35, 0
-7.97,2.08,-5.45, 0
-7.99,2.33,-5.51, 0
-8.03,2.94,-5.51, 0
-8.07,2.84,-5.37, 0
-8.02,2.40,-5.45, 0
-7.85,2.17,-5.73, 0
-7.70,1.97,-6.08, 0
-7.85,1.94,-5.59, 0
-7.88,2.38,-4.91, 0
-8.31,2.56,-4.39, 0
-8.40,2.67,-4.13, 0
-8.38,2.31,-4.44, 0
-8.26,1.96,-5.45, 0
-8.46,1.94,-6.03, 0
-8.03,2.05,-5.80, 0
-7.62,2.52,-5.07, 0
-7.65,3.06,-4.77, 0
-8.08,2.95,-5.32, 0
-8.59,2.32,-5.74, 0
-8.45,1.79,-5.53, 0
-8.34,1.47,-5.18, 0
-8.03,1.40,-4.86, 0
-7.89,1.48,-4.99, 0
-7.77,2.02,-5.22, 0
-7.81,2.70,-5.28, 0
-8.08,2.85,-5.52, 0
-7.93,2.51,-5.38, 0
-7.95,2.20,-5.17, 0
-7.84,1.90,-5.05, 0
-7.87,1.90,-5.16, 0
-8.04,1.99,-5.39, 0
-8.16,2.14,-5.39, 0
-8.05,2.17,-5.48, 0
-8.13,2.00,-5.47, 0
-8.21,1.73,-5.48, 0
-8.28,1.57,-5.61, 0
-8.30,1.41,-5.52, 0
-8.34,1.44,-5.46, 0
-8.43,1.42,-5.23, 0
-8.33,1.54,-5.25, 0
-8.19,1.46,-5.15, 0
-8.16,1.51,-5.10, 0
-8.27,1.65,-5.13, 0
-8.07,1.72,-5.11, 0
-8.19,1.76,-5.05, 0
-8.24,1.88,-5.07, 0
-8.27,1.95,-5.03, 0
-8.23,1.93,-5.04, 0
-8.19,1.85,-5.11, 0
-8.16,1.82,-5.09, 0
-8.19,1.82,-5.09, 0
-8.13,1.78,-5.06, 0
-8.10,1.69,-5.00, 0
-8.20,1.65,-4.86, 0
-8.23,1.64,-4.82, 0
-8.19,1.62,-4.82, 0
-8.36,1.60,-5.05, 0
-8.43,1.76,-5.35, 0
-8.34,1.78,-5.23, 0
-8.33,1.58,-4.98, 0
-8.02,1.66,-4.91, 0
-8.20,1.91,-4.95, 0
-8.24,2.05,-4.95, 0
-8.25,2.02,-4.95, 0
-8.30,1.87,-4.95, 0
-8.26,1.79,-5.08, 0
-8.36,1.73,-5.09, 0
-8.31,1.68,-5.08, 0
-8.26,1.66,-5.05, 0
-8.25,1.72,-5.09, 0
-8.34,1.68,-5.09, 0
-8.27,1.70,-5.15, 0
-8.24,1.81,-5.05, 0
-8.27,1.94,-5.05, 0
-8.22,1.91,-5.13, 0
-8.26,1.77,-5.06, 0
-8.22,1.66,-5.10, 0
-8.24,1.76,-5.15, 0
-8.28,1.82,-5.05, 0
-8.24,1.73,-5.02, 0
-8.23,1.70,-4.96, 0
-8.24,1.68,-5.02, 0
-8.30,1.71,-5.08, 0
-8.24,1.68,-5.05, 0
-8.33,1.65,-5.00, 0
-8.32,1.64,-5.10, 0
-8.26,1.57,-5.13, 0
-8.25,1.76,-4.93, 0
-8.24,1.87,-4.96, 0
-8.25,1.79,-4.95, 0
-8.31,1.68,-5.01, 0
-8.25,1.67,-5.04, 0
-8.32,1.88,-5.06, 0
-8.33,1.84,-4.99, 0
-8.23,1.71,-4.92, 0
-8.21,1.73,-4.89, 0
-8.26,1.77,-4.93, 0
-8.35,1.79,-4.97, 0
-8.36,1.73,-5.02, 0
-8.26,1.68,-4.96, 0
-8.26,1.77,-4.86, 0
-8.25,1.72,-4.92, 0
-8.26,1.62,-4.91, 0
-8.33,1.57,-4.93, 0
-8.23,1.63,-4.91, 0
-8.30,1.70,-4.88, 0
-8.33,1.66,-4.91, 0
-8.38,1.62,-5.00, 0
-8.31,1.56,-5.06, 0
-8.36,1.60,-4.93, 0
-8.32,1.66,-4.84, 0
-8.37,1.67,-4.91, 0
-8.35,1.67,-5.09, 0
-8.36,1.66,-4.89, 0
-8.35,1.82,-4.84, 0
-8.32,1.74,-5.01, 0
-8.36,1.58,-5.10, 0
-8.34,1.60,-4.94, 0
-8.28,1.72,-4.85, 0
-8.18,1.66,-4.90, 0
-8.21,1.56,-5.02, 0
-8.25,1.65,-5.15, 0
-8.28,1.77,-5.23, 0
-8.20,1.69,-5.05, 0
-8.07,1.56,-4.92, 0
-8.11,1.57,-4.96, 0
-8.25,1.53,-5.07, 0
-8.15,1.61,-5.14, 0
-8.26,1.84,-5.09, 0
-8.24,1.89,-4.85, 0
-8.22,1.96,-5.03, 0
-8.38,1.93,-5.10, 0
-8.37,1.64,-5.11, 0
-8.38,1.33,-5.32, 0
-8.29,1.20,-5.11, 0
-8.23,1.34,-4.92, 0
-8.38,1.59,-4.97, 0
-8.35,1.49,-5.06, 0
-8.22,1.60,-4.94, 0
-8.32,1.63,-4.91, 0
-8.45,1.68,-5.01, 0
-8.43,1.49,-5.21, 0
-8.37,1.42,-5.23, 0
-8.25,1.43,-4.96, 0
-8.28,1.49,-4.91, 0
-8.39,1.43,-5.03, 0
-8.38,1.14,-5.23, 0
-8.35,0.93,-5.20, 0
-8.36,0.84,-5.13, 0
-8.35,0.85,-4.87, 0
-8.37,0.86,-4.97, 0
-8.36,0.73,-5.13, 0
-8.38,0.80,-5.03, 0
-8.30,0.92,-5.00, 0
-8.36,1.15,-4.91, 0
-8.46,1.14,-4.85, 0
-8.49,1.19,-4.75, 0
-8.54,1.23,-4.78, 0
-8.57,1.47,-4.90, 0
-8.76,1.72,-4.96, 0
-8.97,1.85,-4.79, 0
-9.03,1.70,-4.62, 0
-8.91,1.44,-4.70, 0
-8.93,1.01,-4.71, 0
-8.57,0.92,-4.49, 0
-8.64,0.88,-4.21, 0
-8.68,1.03,-4.25, 0
-8.78,1.14,-4.27, 0
-8.71,1.09,-4.13, 0
-8.65,1.35,-4.05, 0
-8.57,1.41,-4.28, 0
-8.77,1.45,-4.32, 0
-8.70,1.53,-4.09, 0
-8.47,1.80,-3.82, 0
-8.65,2.05,-3.89, 0
-8.92,2.28,-4.23, 0
-9.22,2.33,-4.45, 0
-9.40,2.17,-4.57, 0
-9.07,2.17,-4.50, 0
-8.81,2.05,-4.37, 0
-8.75,2.06,-3.94, 0
-8.54,2.45,-3.80, 0
-8.55,2.66,-3.73, 0
-8.64,2.63,-3.73, 0
-8.50,2.38,-3.60, 0
-8.33,2.37,-3.35, 0
-8.55,2.48,-3.34, 0
-8.45,2.43,-3.46, 0
-8.56,2.35,-3.37, 0
-8.60,2.30,-3.35, 0
-8.42,2.39,-3.44, 0
-8.23,2.40,-3.07, 0
-8.16,2.53,-2.59, 0
-8.29,2.84,-2.60, 0
-8.36,3.23,-2.80, 0
-8.49,3.52,-2.66, 0
-8.70,3.65,-2.65, 0
-8.77,3.72,-2.91, 0
-8.83,3.34,-2.91, 0
-8.68,2.86,-2.91, 0
-8.77,2.38,-2.90, 0
-8.49,1.84,-2.60, 0
-8.46,1.81,-2.65, 0
-8.54,1.96,-2.69, 0
-8.65,1.94,-3.11, 0
-8.73,1.85,-3.25, 0
-8.70,1.93,-3.06, 0
-8.71,2.32,-2.85, 0
-8.83,2.56,-2.83, 0
-8.45,2.93,-2.77, 0
-8.61,2.80,-2.83, 0
-8.78,2.83,-3.19, 0
-9.03,3.10,-3.55, 0
-9.30,2.92,-3.43, 0
-9.19,2.04,-3.40, 0
-8.88,1.55,-3.20, 0
-8.90,1.33,-3.39, 0
-10.40,1.72,-3.82, 0
-11.80,1.76,-5.73, 0
-11.45,1.07,-6.58, 0
-9.68,0.32,-4.07, 0
-7.84,0.56,-1.76, 0
-7.49,1.37,-1.08, 0
-8.36,1.38,-2.95, 0
-8.46,0.52,-4.93, 0
-9.16,-0.56,-5.34, 0
-8.67,-0.90,-4.45, 0
-8.27,-0.40,-4.19, 0
-8.48,-0.01,-4.10, 0
-8.54,-0.24,-4.68, 0
-8.07,-1.00,-5.54, 0
-7.76,-1.43,-6.22, 0
-7.99,-1.26,-6.48, 0
-7.97,-0.54,-5.81, 0
-8.26,0.45,-5.65, 0
-8.07,1.17,-5.74, 0
-8.18,1.53,-5.90, 0
-8.46,1.50,-5.68, 0
-8.43,1.44,-5.34, 0
-8.19,2.07,-5.17, 0
-8.20,2.51,-5.04, 0
-8.28,2.15,-5.00, 0
-8.04,2.05,-5.19, 0
-8.44,1.88,-5.43, 0
-8.49,2.02,-5.51, 0
-8.27,2.07,-5.36, 0
-8.26,2.28,-5.09, 0
-8.16,2.39,-5.01, 0
-8.16,2.24,-5.08, 0
-7.68,2.22,-5.37, 0
-7.39,2.22,-5.58, 0
-7.25,2.43,-5.48, 0
-7.19,2.88,-5.17, 0
-7.23,3.40,-4.77, 0
-6.98,3.89,-5.10, 0
-6.89,4.60,-5.54, 0
-7.19,5.25,-5.23, 0
-7.45,4.91,-4.82, 0
-9.64,2.62,-2.44, 0
-8.02,2.28,0.47, 0
-7.88,1.36,-0.57, 0
-9.14,-2.00,-5.98, 0
-12.10,-4.18,-12.06, 0
-14.79,-1.90,-11.19, 0
-12.51,1.77,-7.91, 0
-9.92,2.62,-4.84, 0
-8.43,2.26,-2.76, 0
-7.16,0.02,-0.22, 0
-5.87,-1.26,-0.17, 0
-7.16,0.12,-2.13, 0
-9.13,1.85,-4.01, 0
-9.76,3.09,-4.44, 0
-9.75,2.44,-4.06, 0
-9.42,0.89,-3.98, 0
-8.82,0.00,-3.28, 0
-8.00,-0.10,-2.68, 0
-7.75,0.75,-3.02, 0
-8.09,1.91,-3.76, 0
-8.58,2.84,-4.18, 0
-8.60,3.06,-4.01, 0
-8.27,2.81,-3.43, 0
-7.94,2.55,-3.13, 0
-7.90,2.43,-3.21, 0
-8.21,2.39,-3.57, 0
-8.05,2.57,-3.68, 0
-7.60,2.84,-3.38, 0
-7.07,2.97,-3.06, 0
-7.31,2.81,-2.83, 0
-8.12,2.64,-3.03, 0
-8.10,2.45,-4.02, 0
-8.26,2.22,-4.06, 0
-8.86,3.03,-4.02, 0
-8.80,4.46,-4.37, 0
-12.78,2.94,-4.43, 0
-15.19,2.32,-8.98, 0
-12.21,1.32,-10.16, 0
-9.71,-0.67,-5.29, 0
-8.78,-1.31,-1.27, 0
-7.42,0.35,-0.14, 0
-7.60,2.50,-1.19, 0
-8.54,1.21,-3.89, 0
-8.80,-1.18,-6.58, 0
-8.38,-2.16,-7.39, 0
-7.69,-1.27,-6.00, 0
-7.59,-0.73,-4.27, 0
-7.75,-0.50,-3.71, 0
-7.58,0.40,-3.81, 0
-7.73,1.79,-5.00, 0
-8.47,2.49,-6.00, 0
-8.78,2.56,-6.23, 0
-8.62,1.98,-6.01, 0
-8.13,1.37,-5.28, 0
-7.54,1.09,-4.43, 0
-7.39,1.14,-4.32, 0
-7.60,1.84,-4.76, 0
-7.81,2.64,-5.33, 0
-7.82,3.14,-5.53, 0
-7.62,3.25,-5.25, 0
-7.55,3.14,-4.83, 0
-7.41,2.92,-4.61, 0
-7.72,2.10,-5.10, 0
-8.35,1.27,-5.75, 0
-8.74,0.70,-6.08, 0
-8.67,0.90,-5.61, 0
-8.47,1.79,-5.10, 0
-8.09,2.57,-4.88, 0
-7.57,2.53,-5.13, 0
-8.46,1.73,-4.71, 0
-7.21,1.16,-4.71, 0
-6.98,1.09,-4.78, 0
-8.71,3.24,-4.58, 0
-10.53,6.25,-4.56, 0
-11.19,5.85,-7.61, 0
-12.17,2.31,-10.73, 0
-11.51,-0.33,-10.85, 0
-9.15,-0.89,-5.93, 0
-6.06,-1.37,-1.02, 0
-4.98,-1.61,0.14, 0
-5.65,-2.08,-0.59, 0
-6.56,-1.78,-1.93, 0
-7.41,-0.41,-3.44, 0
-9.48,1.70,-4.82, 0
-11.43,4.07,-5.82, 0
-11.27,5.08,-6.26, 0
-10.34,4.59,-4.99, 0
-8.92,3.44,-3.58, 0
-8.05,2.22,-3.08, 0
-7.96,1.87,-3.63, 0
-8.55,1.96,-4.26, 0
-8.57,2.16,-4.44, 0
-7.37,2.37,-3.62, 0
-6.42,1.87,-2.50, 0
-6.44,1.87,-2.49, 0
-6.80,2.08,-3.71, 0
-7.34,2.72,-4.79, 0
-8.16,2.92,-4.63, 0
-8.36,3.19,-4.03, 0
-7.39,3.60,-4.71, 0
-6.82,3.78,-4.49, 0
-7.52,4.72,-4.35, 0
-8.43,6.28,-4.06, 0
-12.65,4.88,-4.81, 0
-13.16,3.36,-8.62, 0
-10.21,1.26,-8.29, 0
-9.04,-1.29,-3.90, 0
-9.79,-2.00,-3.36, 0
-8.81,-0.40,-4.41, 0
-8.13,1.38,-3.14, 0
-8.04,1.04,-2.79, 0
-7.76,-0.33,-3.38, 0
-8.72,-1.24,-4.86, 0
-8.84,-0.47,-5.34, 0
-8.00,0.56,-4.61, 0
-7.81,0.88,-4.59, 0
-8.37,1.12,-4.80, 0
-8.63,0.98,-4.97, 0
-8.56,0.81,-4.80, 0
-8.50,0.72,-4.92, 0
-8.34,0.30,-5.19, 0
-8.05,-0.08,-5.68, 0
-8.40,-0.04,-6.03, 0
-8.54,-0.36,-5.73, 0
-7.94,-0.01,-5.64, 0
-8.37,0.22,-5.85, 0
-8.54,0.89,-5.75, 0
-8.49,0.88,-5.65, 0
-8.34,0.73,-5.38, 0
-8.22,0.83,-5.19, 0
-7.64,1.52,-4.93, 0
-7.85,1.98,-5.90, 0
-8.44,2.20,-6.15, 0
-8.16,1.78,-5.76, 0
-8.00,1.49,-5.06, 0
-9.73,0.42,-4.46, 0
-8.42,0.74,-2.44, 0
-8.19,1.86,-1.29, 0
-8.86,2.17,-3.07, 0
-10.40,0.29,-5.72, 0
-11.05,-1.99,-7.75, 0
-10.65,-3.15,-8.01, 0
-9.04,-2.21,-6.44, 0
-7.68,-0.49,-3.20, 0
-6.90,0.54,-1.72, 0
-6.75,1.30,-2.05, 0
-7.16,1.81,-3.71, 0
-7.70,2.13,-5.08, 0
-8.11,2.52,-4.72, 0
-8.27,3.39,-3.47, 0
-8.30,3.83,-2.44, 0
-8.24,3.95,-2.38, 0
-8.81,3.41,-2.68, 0
-9.09,2.61,-3.25, 0
-9.75,2.24,-3.49, 0
-9.69,2.59,-3.73, 0
-9.65,2.77,-3.37, 0
-9.16,2.45,-2.82, 0
-8.55,1.88,-2.51, 0
-8.24,1.32,-2.47, 0
-8.44,0.69,-2.61, 0
-8.92,0.28,-3.24, 0
-8.94,0.07,-4.48, 0
-9.27,-0.13,-4.98, 0
-8.99,0.33,-4.60, 0
-8.56,0.92,-4.05, 0
-11.58,1.28,-5.08, 0
-12.40,3.65,-8.02, 0
-9.01,3.81,-6.10, 0
-6.46,2.84,-1.07, 0
-6.46,1.74,0.56, 0
-8.84,1.18,-2.12, 0
-9.59,-0.24,-5.13, 0
-9.80,-1.58,-6.10, 0
-9.56,-0.90,-4.68, 0
-8.29,0.98,-3.75, 0
-8.00,2.22,-3.29, 0
-8.32,2.33,-3.70, 0
-8.35,0.46,-5.05, 0
-8.06,-1.77,-5.96, 0
-7.62,-2.87,-6.43, 0
-7.84,-2.41,-5.46, 0
-7.59,-0.23,-5.45, 0
-8.44,1.51,-5.80, 0
-9.00,1.49,-6.51, 0
-8.77,0.64,-6.31, 0
-8.89,-0.59,-5.53, 0
-8.38,-1.35,-4.96, 0
-8.21,-1.91,-5.30, 0
-7.88,-1.83,-5.97, 0
-7.47,-2.07,-6.04, 0
-7.70,-2.79,-7.02, 0
-11.57,-1.68,-6.04, 0
-9.23,2.15,-3.28, 0
-8.08,4.26,-0.53, 0
-7.82,2.65,-1.91, 0
-7.78,-0.42,-4.37, 0
-8.88,-2.90,-5.44, 0
-8.90,-1.63,-3.96, 0
-7.61,0.03,-0.68, 0
-8.15,0.58,-0.11, 0
-10.80,-1.93,-1.28, 0
-10.84,-2.09,-3.41, 0
-9.92,-0.35,-3.65, 0
-9.39,-0.01,-1.71, 0
-8.34,-0.39,-0.46, 0
-8.11,-1.75,-1.05, 0
-9.01,-2.16,-2.45, 0
-9.32,-1.77,-1.95, 0
-9.01,-2.03,-1.80, 0
-8.98,-3.04,-1.79, 0
-9.19,-3.88,-1.51, 0
-8.64,-3.31,-0.87, 0
-8.50,-2.58,-0.60, 0
-8.85,-2.56,-1.10, 0
-9.64,-3.61,-2.74, 0
-9.98,-4.45,-3.56, 0
-9.22,-4.62,-2.52, 0
-8.32,-4.45,-0.80, 0
-8.32,-4.04,-0.39, 0
-8.90,-3.80,-1.57, 0
-9.79,-3.88,-2.58, 0
-9.55,-3.85,-2.93, 0
-8.56,-4.68,-2.31, 0
-7.47,-4.88,-1.67, 0
-7.20,-5.32,-1.49, 0
-7.47,-5.39,-1.74, 0
-8.13,-5.40,-2.25, 0
-8.73,-5.00,-2.31, 0
-9.12,-4.49,-2.03, 0
-9.31,-3.83,-1.97, 0
-9.76,-3.83,-1.84, 0
-9.58,-4.41,-1.83, 0
-9.01,-4.80,-1.78, 0
-8.54,-4.76,-1.62, 0
-8.25,-4.51,-1.50, 0
-8.19,-4.21,-1.60, 0
-8.20,-4.22,-1.65, 0
-8.14,-4.51,-1.77, 0
-8.16,-4.86,-1.97, 0
-8.17,-5.02,-2.00, 0
-8.30,-4.89,-1.81, 0
-8.20,-4.52,-1.84, 0
-8.18,-4.53,-1.88, 0
-8.26,-4.54,-1.94, 0
-8.28,-4.45,-1.86, 0
-8.26,-4.24,-1.71, 0
-8.23,-4.25,-1.62, 0
-8.16,-4.44,-1.75, 0
-8.39,-4.40,-1.67, 0
-8.66,-4.25,-1.77, 0
-8.92,-4.14,-2.11, 0
-8.94,-4.32,-2.39, 0
-8.58,-4.49,-2.22, 0
-8.25,-4.36,-1.86, 0
-8.18,-4.24,-1.69, 0
-8.28,-4.08,-1.90, 0
-8.30,-4.06,-1.99, 0
-8.26,-4.11,-1.94, 0
-8.30,-4.01,-1.68, 0
-8.32,-3.77,-1.66, 0
-8.44,-3.56,-1.61, 0
-8.54,-3.54,-1.72, 0
-8.61,-3.73,-1.71, 0
-9.03,-3.92,-1.63, 0
-9.19,-3.96,-1.94, 0
-9.27,-4.22,-2.08, 0
-9.27,-4.28,-1.98, 0
-8.66,-3.99,-2.04, 0
-7.92,-4.16,-2.54, 0
-7.32,-4.57,-2.81, 0
-7.01,-4.43,-2.89, 0
-6.75,-4.39,-3.01, 0
-6.97,-4.56,-3.20, 0
-7.81,-4.33,-3.04, 0
-8.94,-3.76,-2.96, 0
-8.90,-3.17,-3.63, 0
-8.69,-3.21,-3.46, 0
-8.00,-2.67,-2.52, 0
-7.43,-2.43,-1.37, 0
-7.46,-3.18,-1.25, 0
-7.30,-4.23,-1.86, 0
-7.25,-4.19,-1.93, 0
-7.78,-3.47,-1.78, 0
-8.25,-2.49,-1.66, 0
-8.15,-2.77,-1.89, 0
-7.47,-3.08,-1.55, 0
-7.04,-3.43,-1.00, 0
-7.15,-3.56,-0.68, 0
-7.41,-3.84,-1.36, 0
-8.09,-4.41,-1.79, 0
-8.21,-4.52,-1.60, 0
-8.80,-4.22,-1.58, 0
-8.56,-3.69,-1.86, 0
-8.56,-3.29,-1.92, 0
-8.42,-3.76,-1.73, 0
-8.89,-3.63,-1.09, 0
-9.12,-2.57,-1.40, 0
-9.13,-2.51,-1.74, 0
-9.06,-2.39,-2.10, 0
-8.96,-2.19,-1.74, 0
-8.94,-1.71,-1.07, 0
-9.31,-1.43,-1.31, 0
-9.73,-1.73,-2.25, 0
-9.78,-1.72,-2.36, 0
-9.61,-1.52,-1.66, 0
-9.63,-1.32,-1.06, 0
-9.75,-1.13,-0.92, 0
-10.24,-0.84,-1.04, 0
-10.82,-0.28,-1.25, 0
-10.56,0.24,-0.97, 0
-10.54,0.09,-0.26, 0
-10.34,-0.26,-0.32, 0
-10.68,-0.54,-0.91, 0
-10.82,-0.50,-1.08, 0
-10.36,-0.48,-0.53, 0
-10.01,-0.52,0.04, 0
-9.84,-0.48,-0.07, 0
-10.20,-0.32,-0.32, 0
-10.31,-0.01,-0.80, 0
-10.15,-0.34,-0.57, 0
-9.97,-0.86,0.01, 0
-10.16,-1.26,-0.45, 0
-10.67,-0.89,-1.29, 0
-10.25,-0.09,-0.85, 0
-9.53,0.15,0.09, 0
-9.26,-0.17,0.46, 0
-9.56,-0.32,-0.32, 0
-10.23,-0.00,-0.95, 0
-10.03,0.57,-0.81, 0
-10.84,-0.41,0.56, 0
-12.06,-0.04,0.31, 0
-11.97,0.90,-0.59, 0
-10.38,1.01,-1.43, 0
-8.61,0.15,-0.51, 0
-8.17,0.05,-0.21, 0
-8.97,0.65,0.02, 0
-9.39,0.53,0.06, 0
-9.94,-0.21,-0.30, 0
-10.52,-0.93,-1.34, 0
-9.90,-0.41,-1.50, 0
-9.82,0.51,-0.11, 0
-10.01,0.61,-0.00, 0
-10.29,-0.22,-0.55, 0
-9.63,-1.20,-0.21, 0
-8.66,-2.24,0.15, 0
-8.36,-3.00,0.87, 0
-8.30,-2.73,0.64, 0
-8.71,-1.07,0.21, 0
-9.36,0.80,0.10, 0
-10.12,1.40,0.36, 0
-10.32,0.86,0.34, 0
-10.15,-0.19,-0.04, 0
-9.41,-0.62,0.30, 0
-8.62,-0.44,1.03, 0
-8.62,-0.34,1.11, 0
-9.19,-0.39,0.37, 0
-9.67,-0.46,-0.10, 0
-9.89,-0.32,-0.25, 0
-9.93,0.04,-0.12, 0
-9.88,0.15,0.21, 0
-9.85,-0.16,0.11, 0
-9.88,-0.18,-0.20, 0
-9.55,0.18,0.09, 0
-9.30,0.41,0.45, 0
-9.43,0.41,0.11, 0
-9.63,0.17,-0.32, 0
-9.73,-0.09,-0.20, 0
-9.58,-0.31,0.00, 0
-9.78,-0.34,-0.23, 0
-9.89,-0.19,-0.53, 0
-9.63,-0.13,-0.20, 0
-9.27,-0.24,0.22, 0
-9.32,-0.34,0.17, 0
-9.46,-0.35,-0.12, 0
-9.60,-0.40,-0.29, 0
-9.43,-0.60,-0.17, 0
-9.48,-0.85,-0.11, 0
-9.61,-0.74,-0.31, 0
-9.77,-0.55,-0.37, 0
-9.73,-0.39,-0.32, 0
-9.55,-0.42,-0.21, 0
-9.47,-0.56,-0.16, 0
-9.51,-0.78,-0.27, 0
-9.50,-0.77,-0.29, 0
-9.53,-0.59,-0.27, 0
-9.48,-0.45,-0.17, 0
-9.58,-0.47,-0.25, 0
-9.69,-0.42,-0.37, 0
-9.65,-0.35,-0.26, 0
-9.60,-0.31,-0.14, 0
-9.62,-0.30,-0.28, 0
-9.57,-0.37,-0.33, 0
-9.53,-0.45,-0.21, 0
-9.40,-0.45,-0.13, 0
-9.50,-0.38,-0.30, 0
-9.63,-0.36,-0.39, 0
-9.55,-0.38,-0.45, 0
-9.57,-0.44,-0.26, 0
-9.59,-0.38,-0.28, 0
-9.65,-0.29,-0.34, 0
-9.62,-0.38,-0.29, 0
-9.53,-0.56,-0.14, 0
-9.53,-0.55,-0.26, 0
-9.66,-0.46,-0.37, 0
-9.68,-0.49,-0.30, 0
-9.52,-0.43,-0.25, 0
-9.60,-0.34,-0.30, 0
-9.67,-0.23,-0.40, 0
-9.61,-0.36,-0.29, 0
-9.48,-0.55,-0.12, 0
-9.58,-0.50,-0.13, 0
-9.65,-0.33,-0.27, 0
-9.63,-0.33,-0.29, 0
-9.61,-0.34,-0.27, 0
-9.70,-0.26,-0.29, 0
-9.77,-0.06,-0.44, 0
-10.23,-0.16,-0.38, 0
-10.33,0.00,-0.27, 0
-11.01,-0.04,0.01, 0
-10.46,0.40,0.12, 0
-10.29,0.38,0.55, 0
-9.88,-0.02,0.90, 0
-10.52,-0.34,0.91, 0
-11.13,-1.01,-0.03, 0
-10.38,-1.84,-0.50, 0
-8.88,-1.83,0.05, 0
-8.79,-2.22,0.56, 0
-10.57,-2.10,-0.27, 0
-12.05,0.13,-0.39, 0
-11.52,1.13,0.27, 0
-11.20,-0.02,0.86, 0
-11.27,-0.85,0.09, 0
-11.59,-0.99,-0.26, 0
-11.35,-0.57,0.36, 0
-10.74,-0.43,1.00, 0
-10.80,-0.87,1.00, 0
-10.88,-1.12,0.46, 0
-10.85,-1.32,0.44, 0
-10.26,-1.42,0.36, 0
-9.82,-1.76,0.32, 0
-9.49,-2.17,0.20, 0
-9.10,-2.45,0.33, 0
-9.02,-2.60,0.34, 0
-8.90,-2.82,0.24, 0
-8.23,-2.78,-0.15, 0
-7.99,-3.14,-0.24, 0
-7.59,-3.96,-0.54, 0
-6.82,-4.84,-0.58, 0
-6.25,-4.92,-0.34, 0
-6.16,-4.61,-0.17, 0
-6.03,-4.39,-0.05, 0
-6.31,-4.14,-0.33, 0
-6.67,-3.99,-0.92, 0
-6.35,-4.45,-0.93, 0
-6.17,-5.40,-0.69, 0
-6.27,-6.04,-0.98, 0
-6.49,-5.94,-1.19, 0
-6.57,-5.59,-1.71, 0
-7.04,-5.09,-2.55, 0
-6.95,-5.18,-2.63, 0
-6.45,-5.89,-1.63, 0
-6.22,-6.21,-1.31, 0
-6.81,-6.50,-2.44, 0
-7.86,-6.75,-3.58, 0
-7.94,-6.50,-3.63, 0
-7.44,-5.76,-2.90, 0
-7.61,-5.14,-2.73, 0
-8.03,-5.05,-3.46, 0
-8.07,-4.91,-3.81, 0
-8.20,-4.36,-3.59, 0
-8.14,-3.91,-3.57, 0
-8.17,-3.59,-3.64, 0
-8.30,-3.61,-3.97, 0
-8.44,-3.43,-3.82, 0
-8.46,-3.39,-3.77, 0
-8.78,-2.95,-4.25, 0
-8.91,-2.77,-4.54, 0
-10.70,-4.99,-4.31, 0
-10.12,0.35,-1.75, 0
-8.00,2.94,-0.05, 0
-8.21,-0.16,-2.04, 0
-7.81,-5.28,-2.36, 0
-7.14,-6.97,-2.38, 0
-9.10,-4.22,-3.36, 0
-10.51,-0.58,-4.00, 0
-9.91,0.32,-3.28, 0
-8.69,-1.63,-2.19, 0
-8.22,-3.50,-2.04, 0
-8.71,-3.54,-2.52, 0
-8.88,-2.62,-2.65, 0
-8.96,-1.79,-2.40, 0
-8.69,-0.96,-2.16, 0
-8.70,-0.78,-2.36, 0
-8.68,-1.30,-2.70, 0
-9.03,-1.76,-2.84, 0
-9.41,-2.08,-3.07, 0
-9.72,-1.90,-3.27, 0
-9.33,-1.55,-3.54, 0
-8.68,-1.18,-3.33, 0
-8.28,-0.82,-2.82, 0
-8.28,-0.08,-2.65, 0
-8.39,0.42,-2.11, 0
-7.92,1.04,-2.05, 0
-8.11,1.53,-1.88, 0
-8.71,1.54,-2.45, 0
-9.84,1.07,-3.06, 0
-9.87,0.74,-3.24, 0
-9.58,0.53,-3.33, 0
-9.02,0.58,-3.08, 0
-8.72,0.73,-2.79, 0
-7.73,1.21,-2.41, 0
-7.43,1.79,-1.91, 0
-8.56,3.62,-1.86, 0
-8.34,5.06,-2.65, 0
-8.83,5.21,-3.24, 0
-9.08,4.51,-3.70, 0
-8.86,3.22,-4.18, 0
-8.56,1.35,-4.21, 0
-8.49,0.27,-3.90, 0
-9.29,-0.01,-3.68, 0
-10.91,0.81,-6.08, 0
-12.88,1.20,-7.77, 0
-11.55,1.31,-6.39, 0
-9.49,1.51,-3.56, 0
-7.25,1.83,-1.68, 0
-7.99,1.36,-1.77, 0
-9.07,0.75,-3.79, 0
-9.13,-0.53,-4.49, 0
-9.07,-0.88,-4.32, 0
-8.86,-0.60,-5.02, 0
-8.44,-0.65,-5.48, 0
-8.24,-0.00,-5.29, 0
-7.95,0.58,-4.88, 0
-7.97,0.74,-4.37, 0
-7.70,0.87,-4.46, 0
-7.59,1.11,-4.97, 0
-8.13,1.17,-5.74, 0
-8.33,1.25,-6.19, 0
-8.08,1.03,-5.67, 0
-7.63,0.98,-4.97, 0
-7.50,0.80,-5.12, 0
-7.69,1.06,-5.69, 0
-8.02,1.37,-6.10, 0
-8.36,1.32,-6.38, 0
-8.59,1.35,-6.11, 0
-8.23,1.52,-5.65, 0
-7.98,2.06,-5.30, 0
-8.03,2.40,-5.45, 0
-8.03,2.58,-5.79, 0
-7.81,2.84,-5.88, 0
-7.97,2.85,-5.75, 0
-7.90,2.79,-5.68, 0
-7.55,2.67,-5.62, 0
-7.35,2.72,-5.48, 0
-7.26,2.86,-5.38, 0
-7.15,2.84,-5.48, 0
-7.11,3.09,-5.57, 0
-7.42,3.14,-5.83, 0
-7.75,3.26,-6.09, 0
-7.80,3.13,-5.95, 0
-7.57,2.99,-5.62, 0
-6.93,2.33,-5.75, 0
-8.33,1.25,-4.78, 0
-8.79,1.95,-2.74, 0
-8.73,3.07,-4.35, 0
-9.93,2.51,-6.86, 0
-10.83,2.40,-8.91, 0
-11.07,2.08,-9.14, 0
-10.04,1.86,-7.35, 0
-8.00,1.35,-3.99, 0
-6.72,-0.02,-2.62, 0
-6.42,-1.37,-2.69, 0
-6.62,-2.12,-2.41, 0
-7.15,-2.15,-2.97, 0
-8.38,-1.16,-4.06, 0
-9.75,1.65,-5.22, 0
-11.05,3.68,-5.92, 0
-11.10,3.60,-6.18, 0
-9.53,2.82,-5.25, 0
-7.85,2.23,-3.69, 0
-7.10,2.25,-3.06, 0
-7.28,2.32,-3.46, 0
-8.06,2.57,-4.48, 0
-8.39,2.31,-4.73, 0
-7.70,2.22,-4.26, 0
-7.50,2.12,-3.48, 0
-6.47,2.51,-3.71, 0
-6.38,2.62,-4.01, 0
-7.02,2.82,-3.93, 0
-7.50,3.43,-4.36, 0
-7.60,3.98,-4.91, 0
-7.46,4.51,-4.76, 0
-7.81,5.39,-4.67, 0
-8.11,5.94,-4.48, 0
-12.10,3.75,-5.82, 0
-13.68,2.40,-10.32, 0
-10.54,0.89,-9.38, 0
-7.98,0.25,-4.20, 0
-7.42,-0.31,-1.54, 0
-8.21,-0.53,-2.91, 0
-8.74,-0.75,-4.61, 0
-8.39,-1.04,-4.17, 0
-8.42,0.11,-3.36, 0
-8.98,0.57,-4.29, 0
-8.77,0.61,-5.51, 0
-8.47,0.78,-5.55, 0
-8.29,1.02,-5.07, 0
-8.13,0.99,-4.78, 0
-7.52,0.65,-4.78, 0
-7.86,0.53,-5.25, 0
-8.40,0.97,-5.62, 0
-8.26,1.32,-5.48, 0
-7.84,1.18,-5.29, 0
-7.76,0.81,-5.47, 0
-7.89,0.64,-5.68, 0
-7.81,0.66,-5.78, 0
-8.03,0.58,-5.70, 0
-8.08,1.17,-5.63, 0
-7.97,1.53,-5.62, 0
-8.18,1.89,-5.68, 0
-8.43,2.17,-5.40, 0
-8.21,2.54,-5.01, 0
-8.01,3.04,-4.80, 0
-8.20,2.73,-5.02, 0
-7.91,1.78,-5.14, 0
-7.51,1.19,-4.86, 0
-7.27,1.18,-4.99, 0
-7.56,1.80,-5.40, 0
-7.71,2.23,-5.95, 0
-7.50,2.17,-6.47, 0
-8.40,1.57,-5.41, 0
-8.75,2.60,-2.11, 0
-7.93,2.54,-2.90, 0
-8.96,0.34,-5.69, 0
-9.46,-1.16,-7.22, 0
-9.22,-0.49,-6.61, 0
-9.04,1.74,-5.53, 0
-9.32,3.60,-4.78, 0
-9.37,3.77,-5.04, 0
-9.56,2.56,-5.49, 0
-9.66,1.17,-5.50, 0
-8.80,0.45,-4.50, 0
-7.80,0.50,-3.60, 0
-7.54,0.81,-4.04, 0
-8.00,0.97,-4.49, 0
-8.56,0.45,-4.72, 0
-8.60,0.05,-4.93, 0
-8.25,0.36,-4.60, 0
-8.07,1.08,-4.32, 0
-8.13,1.94,-4.56, 0
-8.33,2.25,-4.51, 0
-8.31,2.30,-4.48, 0
-8.34,2.20,-4.36, 0
-8.24,2.18,-4.30, 0
-8.35,2.26,-4.36, 0
-8.36,2.55,-4.56, 0
-8.37,2.65,-4.58, 0
-8.41,2.43,-4.40, 0
-8.74,2.19,-4.35, 0
-8.83,1.85,-4.86, 0
-8.97,1.40,-4.92, 0
-9.13,0.88,-4.56, 0
-9.06,0.36,-4.60, 0
-9.13,-0.07,-4.78, 0
-8.78,-0.37,-4.46, 0
-8.35,-0.10,-4.23, 0
-8.48,0.22,-3.74, 0
-8.49,1.01,-3.84, 0
-8.26,1.43,-3.99, 0
-8.05,1.83,-3.90, 0
-7.79,2.38,-3.66, 0
-8.41,3.12,-3.46, 0
-9.04,3.73,-4.25, 0
-9.38,3.66,-4.76, 0
-8.90,3.31,-4.33, 0
-7.89,3.13,-3.13, 0
-7.40,2.96,-2.38, 0
-7.70,3.02,-2.72, 0
-8.88,2.25,-3.53, 0
-10.80,0.50,-5.40, 0
-10.19,-0.51,-7.97, 0
-13.35,1.22,-8.96, 0
-9.92,3.04,-6.39, 0
-7.20,1.44,-2.30, 0
-6.20,0.43,-1.29, 0
-6.36,-0.30,-2.34, 0
-7.46,0.04,-4.08, 0
-9.24,-0.34,-5.30, 0
-9.28,-1.39,-6.57, 0
-8.67,-1.94,-7.91, 0
-8.15,-1.91,-7.99, 0
-7.60,-0.71,-6.05, 0
-7.36,0.80,-4.63, 0
-7.78,1.79,-5.19, 0
-8.17,1.70,-6.69, 0
-8.68,0.80,-7.95, 0
-8.44,-0.20,-8.09, 0
-7.45,-0.41,-7.29, 0
-6.95,-0.30,-6.06, 0
-6.62,-0.17,-5.84, 0
-6.93,-0.19,-6.55, 0
-7.43,-0.06,-7.36, 0
-7.57,0.83,-7.81, 0
-7.86,1.39,-7.35, 0
-7.89,1.86,-6.57, 0
-7.44,2.26,-5.49, 0
-7.25,2.77,-4.88, 0
-7.38,3.47,-5.05, 0
-8.21,3.75,-5.02, 0
-9.24,2.88,-3.82, 0
-9.28,1.52,-0.75, 0
-8.02,0.06,-0.95, 0
-8.53,-0.59,-5.09, 0
-8.57,-0.11,-7.97, 0
-8.68,3.57,-8.79, 0
-10.27,7.39,-7.69, 0
-11.20,7.98,-6.10, 0
-10.18,5.41,-5.03, 0
-6.63,3.14,-5.12, 0
-5.64,3.09,-3.78, 0
-6.59,5.09,-2.22, 0
-7.36,6.20,-2.15, 0
-7.91,6.17,-2.98, 0
-8.12,4.63,-4.15, 0
-8.18,2.98,-4.29, 0
-7.89,2.45,-3.65, 0
-7.62,2.81,-2.55, 0
-7.99,3.18,-2.39, 0
-8.20,3.16,-3.04, 0
-8.10,2.86,-3.43, 0
-7.88,2.41,-3.68, 0
-7.91,2.20,-3.29, 0
-7.63,2.61,-3.13, 0
-7.56,3.56,-3.36, 0
-7.25,4.45,-3.56, 0
-7.12,5.59,-3.10, 0
-7.44,6.64,-2.67, 0
-7.85,7.10,-2.38, 0
-8.15,6.25,-2.78, 0
-8.79,4.76,-3.98, 0
-9.33,3.35,-4.75, 0
-8.23,3.01,-4.68, 0
-7.69,2.69,-3.78, 0
-7.80,2.35,-3.04, 0
-8.24,1.67,-2.84, 0
-8.43,1.32,-3.37, 0
-8.80,1.63,-3.43, 0
-19.62,-7.11,-4.15, 0
-19.62,-7.22,-10.26, 0
-17.75,-9.16,-15.72, 0
-7.10,-4.34,-6.33, 0
-5.40,2.28,2.99, 0
-7.82,10.11,1.36, 0
-8.93,10.27,-4.48, 0
-8.01,3.58,-9.72, 0
-9.00,-4.44,-9.32, 0
-8.23,-8.82,-6.98, 0
-4.77,-8.43,-3.41, 0
-3.68,-5.50,-1.54, 0
-5.40,-1.57,-3.59, 0
-8.30,1.61,-7.06, 0
-10.45,2.28,-9.51, 0
-9.21,2.94,-9.81, 0
-7.85,2.25,-6.65, 0
-6.60,1.90,-3.80, 0
-6.10,1.80,-3.38, 0
-7.24,1.56,-4.65, 0
-7.79,1.88,-6.13, 0
-8.33,2.59,-6.60, 0
-7.75,2.86,-6.22, 0
-7.25,2.75,-5.15, 0
-7.19,2.15,-4.29, 0
-7.14,1.53,-4.21, 0
-7.19,1.25,-4.98, 0
-7.97,1.08,-5.41, 0
-7.57,1.54,-6.03, 0
-7.53,1.82,-5.83, 0
-7.40,2.42,-5.21, 0
-6.87,2.63,-4.95, 0
-7.97,1.41,-5.23, 0
-8.41,0.70,-5.29, 0
-7.81,1.84,-5.38, 0
-6.90,1.86,-5.95, 0
-9.63,3.27,-3.83, 0
-9.62,5.50,-4.55, 0
-11.06,6.22,-7.52, 0
-13.70,4.01,-9.35, 0
-11.37,1.16,-10.14, 0
-9.85,-2.18,-9.75, 0
-7.94,-3.96,-5.87, 0
-3.55,-4.90,0.68, 0
-0.28,-5.48,4.66, 0
-4.45,-2.40,0.95, 0
-12.06,2.91,-3.87, 0
-14.05,6.04,-8.30, 0
-13.68,5.71,-11.84, 0
-11.96,3.82,-10.98, 0
-7.96,2.17,-6.02, 0
-5.75,0.76,-0.89, 0
-4.69,-0.26,1.29, 0
-6.53,1.13,-2.50, 0
-7.65,2.28,-5.06, 0
-6.05,3.05,-5.33, 0
-4.98,2.93,-2.72, 0
-5.54,2.35,-1.38, 0
-6.27,1.93,-3.23, 0
-8.04,1.61,-5.91, 0
-8.44,2.96,-6.10, 0
-8.10,3.32,-5.11, 0
-11.69,0.29,-4.28, 0
-9.26,1.18,-8.67, 0
-12.19,2.61,-6.49, 0
-11.59,4.69,-1.11, 0
-10.24,5.91,-2.59, 0
-10.99,3.68,-8.13, 0
-10.35,-1.64,-9.72, 0
-8.04,-3.61,-6.09, 0
-6.60,-0.57,-2.56, 0
-7.51,2.63,-4.09, 0
-7.97,3.48,-6.39, 0
-7.55,2.50,-7.04, 0
-6.34,2.00,-6.13, 0
-6.32,1.72,-5.08, 0
-5.21,0.96,-4.84, 0
-4.28,-0.70,-4.83, 0
-5.16,-1.97,-4.01, 0
-4.73,0.32,-3.67, 0
-5.82,3.98,-4.15, 0
-6.48,7.78,-5.48, 0
-9.20,9.26,-5.09, 0
-10.57,8.07,-5.58, 0
-11.85,2.01,-8.31, 0
-16.36,-1.08,-5.74, 0
-12.99,0.02,-5.69, 0
-11.83,-1.09,-8.75, 0
-10.26,-2.22,-8.95, 0
-8.88,-2.40,-6.47, 0
-7.18,-0.17,-1.75, 0
-6.62,3.79,0.89, 0
-8.24,6.09,-0.64, 0
-10.17,4.25,-3.58, 0
-9.47,1.12,-5.30, 0
-7.35,-0.67,-4.18, 0
-5.23,0.39,-1.82, 0
-4.31,2.64,-0.23, 0
-6.01,4.56,-0.37, 0
-6.90,4.83,-1.60, 0
-4.79,3.42,-2.39, 0
-5.55,0.65,-1.69, 0
-13.24,-5.32,-5.92, 0
-11.90,-2.52,-11.62, 0
-10.21,4.53,-4.14, 0
-7.02,9.63,1.59, 0
-8.49,9.39,-1.80, 0
-11.20,4.06,-10.25, 0
-11.69,-0.74,-12.58, 0
-8.84,-0.98,-7.51, 0
-7.69,2.44,-3.31, 0
-7.94,5.81,-3.87, 0
-7.66,6.20,-5.39, 0
-7.67,3.88,-6.20, 0
-6.70,1.64,-6.17, 0
-5.92,0.46,-6.04, 0
-5.16,0.49,-5.83, 0
-5.42,1.40,-5.13, 0
-5.76,2.95,-4.86, 0
-6.96,4.50,-5.93, 0
-7.90,4.83,-6.88, 0
-7.48,3.67,-6.28, 0
-6.96,1.73,-5.14, 0
-6.88,0.49,-4.36, 0
-7.15,0.02,-4.85, 0
-7.63,-0.39,-6.36, 0
-7.85,-0.45,-7.32, 0
-9.89,-0.21,-6.60, 0
-6.89,1.94,-4.85, 0
-7.28,2.71,-5.17, 0
-10.67,3.04,-6.68, 0
-11.25,4.35,-8.08, 0
-10.31,3.09,-8.98, 0
-10.56,-0.41,-9.17, 0
-9.47,-2.34,-7.45, 0
-7.85,-2.29,-2.36, 0
-5.71,0.28,-0.37, 0
-5.20,2.51,-1.08, 0
-6.62,1.98,-1.54, 0
-7.53,0.81,-4.13, 0
-11.09,1.18,-7.19, 0
-13.57,3.05,-7.69, 0
-11.86,3.98,-5.89, 0
-9.60,3.22,-4.60, 0
-8.78,2.16,-4.77, 0
-8.90,1.33,-5.09, 0
-8.60,1.57,-5.04, 0
-7.70,2.60,-4.32, 0
-6.43,3.29,-3.35, 0
-5.18,3.01,-2.32, 0
-4.80,1.98,-1.84, 0
-4.69,0.75,-3.00, 0
-5.35,0.51,-4.38, 0
-7.91,0.50,-5.52, 0
-9.00,0.95,-6.19, 0
-8.55,0.93,-6.38, 0
-8.17,0.88,-5.72, 0
-8.47,1.00,-5.44, 0
-8.10,1.91,-5.17, 0
-7.78,3.35,-4.60, 0
-10.89,2.87,-4.08, 0
-10.12,3.46,-9.29, 0
-13.15,-0.81,-10.90, 0
-9.72,-1.03,-7.74, 0
-5.96,0.98,-0.59, 0
-7.54,4.29,-0.13, 0
-9.87,5.34,-4.11, 0
-9.99,3.04,-6.25, 0
-7.85,-0.31,-6.57, 0
-5.86,-3.43,-5.65, 0
-5.46,-4.11,-4.15, 0
-6.31,-1.32,-2.70, 0
-7.79,1.47,-3.93, 0
-11.19,1.89,-6.38, 0
-11.23,0.95,-9.31, 0
-10.03,-0.41,-9.67, 0
-8.54,-0.55,-7.68, 0
-7.29,0.12,-5.46, 0
-6.72,-0.29,-4.34, 0
-6.37,-1.35,-4.21, 0
-6.65,-3.36,-4.75, 0
-7.45,-5.22,-5.20, 0
-6.55,-5.20,-5.44, 0
-7.50,-3.17,-6.30, 0
-6.81,-0.89,-7.63, 0
-7.70,-0.31,-7.63, 0
-13.47,0.94,-0.60, 0
-12.81,3.66,0.27, 0
-11.65,0.61,-4.77, 0
-10.46,-3.74,-10.36, 0
-7.49,-3.46,-7.84, 0
-4.55,-2.21,-2.30, 0
-5.56,0.05,-1.81, 0
-8.14,1.62,-2.20, 0
-9.92,1.59,-3.53, 0
-9.95,-1.05,-5.50, 0
-9.83,-3.84,-5.78, 0
-8.25,-4.54,-5.07, 0
-7.86,-3.03,-4.91, 0
-8.54,0.60,-4.00, 0
-10.50,3.30,-4.81, 0
-10.34,4.22,-5.17, 0
-9.24,3.60,-4.97, 0
-8.21,2.23,-4.19, 0
-6.80,1.24,-2.62, 0
-6.91,1.89,-2.81, 0
-7.27,3.47,-3.56, 0
-7.55,4.26,-3.20, 0
-7.41,4.01,-1.41, 0
-7.60,2.81,-0.79, 0
-7.89,1.08,-0.86, 0
-7.75,0.57,-1.73, 0
-9.01,-0.54,-1.62, 0
-16.11,-0.32,-8.63, 0
-13.23,-2.32,-15.61, 0
-5.65,2.72,-4.93, 0
-2.63,7.00,1.47, 0
-4.09,9.77,-0.33, 0
-7.47,5.84,-6.42, 0
-10.89,-1.31,-11.02, 0
-8.86,-4.00,-10.01, 0
-6.70,-3.62,-7.24, 0
-5.57,-1.03,-6.25, 0
-6.16,2.23,-6.16, 0
-7.53,4.95,-6.74, 0
-7.65,6.35,-6.44, 0
-7.88,5.73,-5.65, 0
-7.89,4.91,-5.28, 0
-8.12,3.82,-5.41, 0
-7.87,3.81,-5.65, 0
-7.76,4.10,-5.87, 0
-7.93,3.90,-5.53, 0
-7.70,3.27,-5.40, 0
-7.71,2.68,-5.61, 0
-7.51,2.58,-6.01, 0
-7.37,2.44,-5.47, 0
-6.35,2.42,-4.99, 0
-6.59,3.00,-4.99, 0
-7.26,4.09,-4.58, 0
-8.10,5.28,-4.07, 0
-8.36,4.78,-3.83, 0
-7.52,4.06,-3.97, 0
-7.52,3.89,-4.29, 0
-7.64,3.49,-4.83, 0
-8.69,2.21,-6.51, 0
-9.91,2.77,-2.96, 0
-11.78,5.00,-2.17, 0
-12.68,3.93,-4.74, 0
-12.32,-0.74,-9.44, 0
-10.78,-3.58,-10.22, 0
-7.36,-3.23,-6.18, 0
-4.05,-1.80,-1.49, 0
-4.03,0.94,0.12, 0
-6.18,2.74,-1.41, 0
-8.08,2.74,-3.80, 0
-10.46,1.65,-7.38, 0
-11.82,1.12,-8.18, 0
-10.21,1.26,-4.61, 0
-8.00,2.03,-2.00, 0
-8.34,4.26,-3.52, 0
-8.86,4.73,-4.39, 0
-8.24,4.03,-4.00, 0
-7.08,2.52,-2.84, 0
-6.27,2.14,-2.09, 0
-5.85,2.71,-1.65, 0
-6.08,3.43,-1.58, 0
-6.58,3.63,-1.99, 0
-6.96,3.18,-2.64, 0
-7.81,2.58,-2.62, 0
-7.87,3.02,-3.38, 0
-8.45,3.37,-4.31, 0
-9.44,4.39,-4.11, 0
-14.51,3.72,-3.75, 0
-16.64,3.64,-9.07, 0
-12.59,4.28,-11.49, 0
-10.51,3.68,-2.87, 0
-6.95,4.07,2.09, 0
-7.91,3.77,-0.44, 0
-9.64,1.76,-5.33, 0
-8.99,-1.32,-8.42, 0
-7.32,-2.88,-7.19, 0
-5.92,-2.78,-4.44, 0
-6.03,-1.28,-2.66, 0
-6.46,-0.60,-3.25, 0
-7.17,-0.96,-3.15, 0
-8.04,0.98,-4.80, 0
-9.22,2.92,-7.25, 0
-9.74,4.09,-8.21, 0
-9.34,3.81,-7.04, 0
-8.28,2.36,-5.13, 0
-7.04,1.08,-3.83, 0
-6.71,0.30,-3.57, 0
-7.05,0.24,-3.94, 0
-7.59,1.43,-4.84, 0
-7.81,2.39,-5.73, 0
-7.64,2.55,-5.87, 0
-7.49,2.75,-4.99, 0
-7.07,2.99,-4.33, 0
-6.63,2.74,-4.11, 0
-7.12,2.47,-4.52, 0
-7.91,2.48,-5.16, 0
-8.21,2.98,-4.99, 0
-7.25,3.77,-5.15, 0
-7.59,4.24,-4.94, 0
-7.98,3.82,-5.59, 0
-10.77,1.69,-6.72, 0
-10.16,2.01,-5.35, 0
-11.22,4.56,-5.93, 0
-13.43,4.20,-6.84, 0
-12.19,1.64,-8.61, 0
-10.67,-2.36,-8.96, 0
-8.98,-5.03,-4.41, 0
-4.10,-5.92,1.44, 0
-2.82,-2.22,1.53, 0
-7.21,2.85,-1.31, 0
-12.30,4.92,-4.18, 0
-12.72,4.69,-7.93, 0
-11.40,4.21,-9.35, 0
-9.58,3.62,-6.17, 0
-6.64,1.49,-0.14, 0
-5.00,0.56,-0.30, 0
-6.34,0.38,-2.60, 0
-7.38,1.48,-4.42, 0
-7.70,2.86,-4.26, 0
-7.89,3.40,-2.88, 0
-5.81,3.95,-1.63, 0
-5.52,3.22,-1.91, 0
-6.84,3.45,-3.59, 0
-8.50,3.40,-4.46, 0
-8.92,3.91,-4.49, 0
-8.25,4.78,-4.50, 0
-7.68,6.06,-4.36, 0
-7.59,6.80,-3.03, 0
-15.91,3.43,-1.67, 0
-17.87,2.30,-10.47, 0
-15.95,-0.28,-15.54, 0
-9.59,-0.11,-4.91, 0
-5.79,0.90,1.99, 0
-7.29,2.93,-0.12, 0
-7.85,2.22,-4.59, 0
-7.08,0.10,-7.17, 0
-6.96,-2.43,-6.35, 0
-7.75,-3.33,-3.92, 0
-6.68,-1.22,-3.08, 0
-7.38,1.16,-2.68, 0
-7.69,2.44,-4.21, 0
-8.52,2.58,-6.62, 0
-9.56,2.64,-8.33, 0
-8.60,2.35,-7.38, 0
-7.59,1.36,-5.14, 0
-6.85,0.65,-3.64, 0
-6.42,0.74,-3.22, 0
-6.89,0.99,-4.29, 0
-7.76,1.47,-5.71, 0
-7.99,2.46,-5.80, 0
-7.73,3.35,-5.14, 0
-7.26,3.64,-4.60, 0
-8.34,2.74,-4.51, 0
-8.18,2.09,-4.39, 0
-7.66,1.62,-5.10, 0
-8.14,1.67,-5.30, 0
-8.28,2.60,-5.64, 0
-8.65,2.92,-6.55, 0
-8.01,1.33,-7.71, 0
-12.11,1.04,-5.29, 0
-9.82,3.35,-3.92, 0
-11.24,3.79,-4.69, 0
-11.18,2.63,-6.71, 0
-10.05,0.45,-7.08, 0
-8.80,-3.25,-5.38, 0
-6.37,-6.99,-1.30, 0
-3.25,-6.55,-0.07, 0
-5.85,-1.57,-1.66, 0
-10.48,6.39,-3.56, 0
-14.22,10.18,-5.09, 0
-13.26,8.06,-10.22, 0
-11.62,4.56,-10.50, 0
-8.21,1.98,-6.12, 0
-5.57,-0.73,0.85, 0
-4.20,-1.07,0.24, 0
-6.07,1.40,-1.86, 0
-6.52,3.62,-4.14, 0
-6.47,4.39,-4.25, 0
-5.90,4.01,-3.16, 0
-6.32,3.06,-2.25, 0
-7.57,1.18,-3.74, 0
-6.70,-0.19,-5.46, 0
-7.32,0.24,-5.13, 0
-9.68,1.48,-4.50, 0
-9.47,3.55,-7.64, 0
-15.95,2.31,-10.06, 0
-14.34,2.32,-12.17, 0
-9.52,1.78,-4.62, 0
-6.41,2.82,1.42, 0
-6.66,3.25,-0.59, 0
-7.29,0.57,-5.00, 0
-7.51,-3.43,-7.24, 0
-7.77,-5.53,-6.73, 0
-7.41,-3.11,-5.36, 0
-7.13,1.70,-4.63, 0
-7.40,4.33,-4.57, 0
-8.00,4.79,-5.56, 0
-9.00,2.94,-7.10, 0
-8.53,1.20,-7.23, 0
-7.71,1.04,-5.48, 0
-7.56,2.25,-4.31, 0
-8.05,3.18,-4.46, 0
-8.36,2.77,-5.41, 0
-8.24,1.59,-5.89, 0
-8.21,0.58,-5.62, 0
-8.31,-0.10,-5.53, 0
-8.77,-0.39,-5.58, 0
-9.13,-0.23,-5.85, 0
-9.63,0.45,-6.46, 0
-10.03,1.13,-6.75, 0
-10.03,0.92,-6.60, 0
-9.42,0.10,-6.05, 0
-9.03,-0.62,-5.69, 0
-8.28,-1.03,-5.01, 0
-7.55,-1.07,-3.74, 0
-5.87,-1.29,-3.04, 0
-4.47,-1.96,-1.85, 0
-2.96,-1.72,-0.35, 0
-3.20,0.41,-1.00, 0
-6.26,3.79,-3.20, 0
-9.48,5.33,-4.44, 0
-11.43,5.09,-5.42, 0
-12.89,3.38,-6.50, 0
-14.01,1.90,-6.84, 0
-15.67,2.34,-5.68, 0
-15.49,3.14,-5.87, 0
-13.70,2.51,-6.20, 0
-10.91,2.10,-4.72, 0
-8.31,2.06,-3.45, 0
-6.40,1.87,-2.25, 0
-4.42,1.53,-1.35, 0
-2.89,1.33,-0.51, 0
-1.34,1.56,-0.08, 0
-0.19,1.13,-0.08, 0
0.39,-0.23,-1.33, 0
-3.22,-5.24,-4.45, 0
-10.89,-9.52,-5.52, 0
-11.09,-5.62,-8.35, 0
-12.55,3.87,-9.32, 0
-12.11,9.19,-7.78, 0
-12.78,7.51,-9.35, 0
-13.23,3.50,-9.86, 0
-12.67,-0.18,-9.53, 0
-12.40,-1.15,-8.41, 0
-11.06,0.04,-6.70, 0
-10.02,1.08,-5.35, 0
-8.38,1.29,-4.76, 0
-6.87,0.60,-3.72, 0
-4.47,-0.41,-2.95, 0
-2.74,-1.24,-2.37, 0
-2.27,-1.27,-2.36, 0
-2.87,-1.25,-1.84, 0
-1.73,-0.42,0.45, 0
-2.54,4.03,0.62, 0
-9.12,5.38,0.11, 0
-12.42,9.13,-4.86, 0
-14.39,8.67,-9.40, 0
-15.66,3.17,-14.35, 0
-13.21,0.72,-8.16, 0
-11.18,1.66,-0.74, 0
-12.85,5.08,-2.80, 0
-12.58,6.05,-6.41, 0
-10.64,3.76,-6.95, 0
-8.95,1.19,-5.36, 0
-5.84,0.20,-3.12, 0
-3.11,0.14,-1.62, 0
-2.59,0.38,-0.83, 0
-4.44,0.11,-0.37, 0
-4.64,-0.80,-1.79, 0
-3.42,-2.60,-5.47, 0
-4.11,-4.12,-6.84, 0
-9.56,-5.62,-2.20, 0
-8.08,-1.97,-2.57, 0
-11.20,4.12,-5.96, 0
-11.09,7.85,-8.44, 0
-10.78,5.93,-8.72, 0
-11.98,2.49,-9.23, 0
-13.16,0.25,-10.41, 0
-13.02,-1.41,-9.95, 0
-10.86,-0.33,-6.69, 0
-9.45,1.47,-4.58, 0
-8.59,2.30,-4.90, 0
-6.95,1.13,-3.84, 0
-5.93,0.67,-4.02, 0
-5.35,0.33,-3.74, 0
-4.42,-0.60,-3.30, 0
-3.86,-0.09,-3.40, 0
-3.67,0.59,-2.21, 0
-3.54,1.28,-0.71, 0
-4.87,1.80,-0.46, 0
-8.17,1.28,-4.63, 0
-13.18,2.50,-9.38, 0
-16.06,5.11,-10.03, 0
-16.36,3.60,-11.24, 0
-16.26,0.05,-11.00, 0
-13.15,-1.92,-7.22, 0
-9.75,-1.63,-3.82, 0
-7.60,0.37,-2.03, 0
-6.05,2.36,-2.05, 0
-5.12,3.09,-3.28, 0
-4.52,2.69,-3.84, 0
-3.68,1.68,-3.77, 0
-3.34,0.47,-2.22, 0
-3.38,-0.17,-0.23, 0
-3.86,-0.39,-0.81, 0
-4.78,0.38,-2.45, 0
-6.91,1.26,-2.92, 0
-10.55,1.86,-5.23, 0
-13.97,2.79,-7.91, 0
-16.79,3.18,-10.51, 0
-16.00,1.67,-11.69, 0
-13.52,0.78,-8.54, 0
-10.96,1.24,-5.65, 0
-9.08,1.67,-4.49, 0
-7.34,1.60,-3.86, 0
-5.47,0.96,-2.99, 0
-4.38,0.34,-2.12, 0
-3.84,-0.04,-1.92, 0
-3.77,-0.11,-1.99, 0
-2.82,0.13,-2.04, 0
-3.07,0.80,-1.41, 0
-4.01,1.79,-1.13, 0
-7.36,2.42,-1.98, 0
-11.24,2.34,-4.91, 0
-15.27,2.51,-8.88, 0
-18.01,2.81,-12.15, 0
-17.19,1.75,-12.53, 0
-14.51,1.50,-8.50, 0
-12.13,1.73,-5.92, 0
-9.69,1.38,-4.78, 0
-6.63,1.25,-3.68, 0
-4.26,0.95,-2.95, 0
-3.45,1.12,-2.04, 0
-2.57,1.40,-1.42, 0
-1.67,1.57,-1.45, 0
-2.38,0.97,-1.79, 0
-4.17,0.27,-1.78, 0
-5.87,-0.86,-2.05, 0
-7.81,-0.37,-4.51, 0
-11.27,0.76,-6.42, 0
-12.36,2.23,-7.85, 0
-13.13,2.87,-7.79, 0
-11.95,2.19,-6.90, 0
-11.43,1.13,-5.56, 0
-11.52,0.53,-6.78, 0
-9.80,-0.48,-7.10, 0
-7.20,-1.31,-4.40, 0
-6.32,-0.79,-1.84, 0
-6.94,1.36,-2.68, 0
-8.58,2.98,-5.33, 0
-9.61,3.65,-6.62, 0
-9.49,3.44,-6.46, 0
-8.73,2.35,-5.62, 0
-7.94,1.09,-4.90, 0
-7.54,0.15,-3.98, 0
-7.54,0.22,-3.85, 0
-8.12,1.12,-4.57, 0
-8.83,1.67,-5.41, 0
-9.06,1.68,-5.66, 0
-8.56,1.52,-5.32, 0
-8.16,1.31,-4.87, 0
-7.90,1.61,-4.44, 0
-8.12,2.22,-4.73, 0
-8.36,2.57,-5.06, 0
-8.08,2.41,-5.35, 0
-8.06,2.02,-5.34, 0
-7.96,1.51,-5.27, 0
-7.89,1.04,-5.40, 0
-7.93,0.91,-5.70, 0
-8.10,0.84,-5.94, 0
-8.06,0.77,-5.80, 0
-8.01,0.47,-5.79, 0
-8.10,0.03,-5.88, 0
-7.91,-0.24,-5.88, 0
-8.01,-0.45,-5.74, 0
-8.03,-0.72,-5.68, 0
-8.12,-0.80,-5.63, 0
-8.33,-0.83,-5.53, 0
-8.09,-0.83,-5.46, 0
-8.25,-1.03,-5.51, 0
-8.21,-1.59,-5.64, 0
-8.38,-2.03,-5.75, 0
-8.59,-2.34,-5.50, 0
-8.77,-2.34,-5.46, 0
-8.86,-2.02,-5.05, 0
-8.45,-1.64,-5.01, 0
-8.59,-1.71,-4.77, 0
-8.57,-1.57,-5.07, 0
-8.59,-1.16,-4.97, 0
-8.48,-0.70,-4.97, 0
-8.53,-0.58,-5.07, 0
-8.55,-0.40,-5.19, 0
-8.32,-0.40,-5.37, 0
-8.27,-0.65,-5.13, 0
-8.13,-0.88,-5.07, 0
-7.99,-1.01,-5.26, 0
-7.94,-1.21,-5.51, 0
-7.86,-1.26,-5.53, 0
-7.68,-1.10,-5.71, 0
-7.73,-0.87,-5.91, 0
-7.73,-0.66,-6.20, 0
-8.03,-0.74,-6.83, 0
-8.31,-1.30,-7.40, 0
-8.42,-1.47,-8.04, 0
-8.33,-0.45,-8.38, 0
-6.97,0.75,-8.41, 0
-7.07,2.02,-7.32, 0
-7.00,3.52,-6.83, 0
-6.74,4.87,-6.11, 0
-6.63,5.27,-5.44, 0
-6.88,4.20,-5.15, 0
-7.51,4.05,-5.73, 0
-8.08,4.31,-6.22, 0
-7.95,4.80,-5.61, 0
-7.86,5.03,-4.88, 0
-7.65,5.15,-4.39, 0
-7.71,4.58,-4.26, 0
-7.74,4.32,-4.40, 0
-7.91,4.19,-4.73, 0
-8.04,4.51,-4.70, 0
-8.13,4.72,-4.64, 0
-8.00,4.73,-4.47, 0
-7.90,4.90,-4.30, 0
-7.73,4.79,-4.11, 0
-7.43,4.80,-4.31, 0
-7.39,4.92,-4.78, 0
-7.01,5.08,-5.41, 0
-6.85,5.27,-5.78, 0
-6.62,5.72,-6.16, 0
-6.39,5.79,-6.97, 0
-6.29,5.21,-8.02, 0
-6.12,4.13,-8.89, 0
-5.74,2.90,-9.35, 0
-5.94,1.32,-9.13, 0
-6.57,-0.15,-9.01, 0
-7.05,-1.46,-8.36, 0
-7.30,-2.79,-7.61, 0
-7.40,-3.33,-7.09, 0
-7.17,-3.00,-6.68, 0
-7.23,-2.24,-6.30, 0
-7.53,-1.35,-6.03, 0
-7.81,-0.47,-6.15, 0
-8.41,-0.19,-6.45, 0
-8.78,-0.60,-6.78, 0
-8.79,-1.26,-7.20, 0
-9.20,-1.90,-6.66, 0
-9.18,-1.91,-5.57, 0
-8.87,-1.66,-5.11, 0
-8.91,-1.53,-5.42, 0
-8.97,-1.36,-6.24, 0
-8.64,-1.16,-6.28, 0
-8.58,-0.98,-5.45, 0
-8.54,-0.81,-4.96, 0
-8.42,-1.23,-4.88, 0
-8.31,-1.51,-5.36, 0
-8.37,-1.37,-5.64, 0
-8.47,-0.94,-5.72, 0
-8.39,-0.59,-5.96, 0
-8.39,-0.46,-6.16, 0
-8.30,-0.51,-6.31, 0
-8.09,-0.84,-6.55, 0
-7.73,-1.16,-6.47, 0
-7.51,-1.22,-6.34, 0
-7.25,-0.83,-6.10, 0
-7.00,-0.08,-6.49, 0
-7.09,0.50,-7.20, 0
-7.20,1.07,-7.79, 0
-7.45,1.41,-7.95, 0
-7.50,1.51,-7.75, 0
-7.66,1.77,-7.18, 0
-7.02,2.37,-6.75, 0
-6.98,2.37,-6.38, 0
-7.12,3.22,-6.39, 0
-7.47,3.64,-6.51, 0
-7.55,3.59,-6.19, 0
-7.63,3.31,-5.63, 0
-7.86,3.29,-5.48, 0
-7.98,3.63,-5.66, 0
-7.98,4.15,-5.20, 0
-7.32,4.55,-4.65, 0
-7.29,4.85,-4.27, 0
-7.47,4.73,-4.53, 0
-7.57,4.91,-3.85, 0
-7.29,4.66,-3.71, 0
-7.67,4.63,-4.16, 0
-7.98,4.68,-4.68, 0
-8.06,4.26,-4.75, 0
-7.89,3.98,-4.36, 0
-7.89,3.90,-4.16, 0
-7.74,3.94,-4.26, 0
-7.70,3.99,-4.58, 0
-7.89,3.87,-4.79, 0
-7.86,3.69,-4.89, 0
-7.89,3.42,-5.13, 0
-7.97,3.07,-5.29, 0
-7.93,2.62,-5.36, 0
-7.88,2.48,-5.24, 0
-7.85,2.63,-5.34, 0
-7.92,2.81,-5.64, 0
-8.03,2.77,-5.84, 0
-8.15,2.39,-5.87, 0
-8.11,1.68,-6.11, 0
-8.52,1.06,-5.79, 0
-8.46,0.56,-4.80, 0
-8.32,0.14,-4.50, 0
-8.16,-0.06,-4.16, 0
-7.90,-0.11,-3.78, 0
-7.92,0.03,-4.05, 0
-8.20,0.10,-4.43, 0
-9.01,-0.27,-4.87, 0
-9.47,-0.61,-5.76, 0
-9.28,-0.36,-6.01, 0
-9.15,0.23,-5.52, 0
-9.25,1.34,-5.02, 0
-9.20,2.21,-4.70, 0
-8.88,2.47,-4.35, 0
-8.19,2.46,-3.95, 0
-8.10,2.43,-3.91, 0
-8.02,2.78,-3.68, 0
-8.16,3.07,-3.73, 0
-8.39,3.39,-3.83, 0
-7.96,3.81,-3.75, 0
-8.13,3.99,-3.74, 0
-8.42,4.41,-4.28, 0
-8.95,3.97,-4.71, 0
-8.64,3.40,-4.46, 0
-7.90,2.82,-3.57, 0
-7.40,2.16,-3.06, 0
-7.45,1.86,-3.22, 0
-7.98,1.94,-3.56, 0
-8.25,2.22,-3.93, 0
-8.38,2.60,-3.89, 0
-8.64,2.98,-3.62, 0
-8.30,3.29,-3.42, 0
-7.89,3.39,-3.64, 0
-8.01,3.40,-4.07, 0
-8.36,3.32,-4.32, 0
-8.64,3.06,-4.66, 0
-9.05,2.66,-4.77, 0
-9.17,3.50,-6.53, 0
-9.56,2.69,-5.67, 0
-8.41,2.86,-3.42, 0
-8.24,2.71,-3.56, 0
-8.38,2.66,-3.84, 0
-9.75,2.37,-4.77, 0
-9.09,2.27,-5.27, 0
-7.90,1.79,-4.42, 0
-8.13,1.16,-4.11, 0
-9.13,0.89,-4.71, 0
-8.99,0.42,-5.04, 0
-8.71,-0.58,-4.62, 0
-8.90,-0.63,-3.60, 0
-8.73,0.54,-2.97, 0
-8.68,1.69,-3.12, 0
-8.21,1.49,-4.01, 0
-7.99,0.81,-4.89, 0
-8.29,0.39,-5.55, 0
-8.74,0.17,-5.75, 0
-7.92,0.25,-5.66, 0
-7.31,0.79,-5.42, 0
-7.88,1.41,-4.86, 0
-7.89,2.40,-4.60, 0
-8.20,2.31,-5.20, 0
-8.67,1.42,-6.16, 0
-8.65,1.22,-6.18, 0
-8.54,1.87,-5.56, 0
-7.95,3.04,-4.46, 0
-7.54,4.02,-3.89, 0
-7.95,4.78,-3.88, 0
-8.33,4.65,-4.62, 0
-8.36,3.21,-5.70, 0
-8.37,2.01,-6.08, 0
-8.16,1.67,-5.29, 0
-7.79,1.95,-4.28, 0
-7.47,2.32,-4.01, 0
-7.63,2.68,-4.59, 0
-7.87,2.94,-5.46, 0
-8.22,2.98,-5.99, 0
-8.00,2.80,-6.24, 0
-7.97,2.94,-5.68, 0
-7.77,3.31,-5.22, 0
-7.63,3.20,-5.25, 0
-7.36,2.99,-5.37, 0
-7.17,3.09,-5.42, 0
-7.07,3.37,-5.46, 0
-7.02,3.34,-5.82, 0
-7.05,2.70,-6.19, 0
-10.45,0.36,-3.30, 0
-10.15,2.81,1.33, 0
-8.64,6.33,0.18, 0
-9.32,2.08,-4.92, 0
-11.01,-3.38,-8.31, 0
-11.69,-5.24,-9.35, 0
-11.08,-2.83,-7.81, 0
-9.81,2.10,-4.19, 0
-9.79,4.41,-2.52, 0
-9.59,2.28,-2.77, 0
-8.94,-0.95,-3.75, 0
-8.45,-2.39,-4.04, 0
-7.84,-1.68,-3.29, 0
-7.26,0.19,-2.41, 0
-7.81,1.65,-2.23, 0
-8.76,2.61,-2.78, 0
-9.51,3.05,-3.48, 0
-9.82,2.43,-3.95, 0
-9.69,1.30,-4.04, 0
-9.30,0.90,-4.14, 0
-8.50,0.97,-2.80, 0
-8.53,1.39,-2.40, 0
-8.02,1.75,-2.61, 0
-8.13,1.43,-2.56, 0
-8.55,1.24,-2.78, 0
-8.12,0.94,-3.28, 0
-8.29,-0.72,-4.03, 0
-8.42,-1.91,-3.28, 0
-8.83,-1.30,-2.20, 0
-9.91,1.08,-2.05, 0
-11.13,3.05,-3.34, 0
-11.44,2.53,-5.41, 0
-10.35,1.03,-5.09, 0
-8.81,0.39,-3.60, 0
-7.78,0.67,-2.31, 0
-7.45,0.74,-1.79, 0
-7.70,0.33,-1.83, 0
-8.04,-0.36,-2.16, 0
-8.03,-0.77,-2.72, 0
-8.21,-1.02,-3.15, 0
-8.63,-1.28,-3.13, 0
-8.78,-1.07,-3.05, 0
-10.07,-0.88,-2.88, 0
-10.67,-0.55,-3.71, 0
-10.55,-0.33,-4.78, 0
-9.80,-0.04,-4.76, 0
-8.20,0.28,-3.78, 0
-7.28,0.68,-2.57, 0
-7.32,1.07,-2.02, 0
-8.84,1.05,-3.25, 0
-10.45,1.48,-6.08, 0
-12.82,2.08,-8.99, 0
-11.21,1.88,-7.46, 0
-8.46,1.26,-2.82, 0
-7.30,0.93,0.07, 0
-8.27,0.17,-2.24, 0
-8.14,-0.17,-4.24, 0
-8.96,-0.03,-4.71, 0
-8.28,0.98,-4.91, 0
-6.89,2.83,-5.68, 0
-7.16,3.71,-5.77, 0
-7.98,3.87,-5.39, 0
-8.39,4.11,-4.65, 0
-7.87,4.77,-4.57, 0
-7.88,4.32,-5.04, 0
-8.06,3.64,-5.80, 0
-8.36,2.49,-6.18, 0
-8.27,1.17,-6.03, 0
-8.03,0.06,-5.87, 0
-8.02,0.22,-5.59, 0
-7.97,1.10,-5.30, 0
-7.40,2.16,-5.20, 0
-7.87,3.15,-5.16, 0
-8.23,3.65,-5.34, 0
-8.32,3.38,-5.40, 0
-8.31,2.73,-5.77, 0
-8.26,2.27,-5.59, 0
-8.58,2.26,-5.74, 0
-8.48,2.33,-5.98, 0
-8.11,2.01,-6.13, 0
-7.53,2.04,-5.23, 0
-7.41,2.19,-4.52, 0
-7.50,2.69,-4.30, 0
-7.89,2.88,-4.80, 0
-8.56,2.28,-5.28, 0
-8.78,1.80,-6.15, 0
-8.76,-0.85,-7.53, 0
-10.13,2.35,-2.10, 0
-7.92,5.03,0.11, 0
-8.11,1.83,-2.44, 0
-9.04,-2.71,-6.82, 0
-7.87,-5.76,-8.79, 0
-7.97,-1.92,-7.11, 0
-9.17,3.07,-5.27, 0
-9.12,4.55,-3.19, 0
-7.67,3.09,-2.46, 0
-7.36,0.57,-3.34, 0
-7.29,-0.73,-4.67, 0
-6.84,0.04,-4.59, 0
-7.35,2.24,-4.04, 0
-8.45,4.37,-3.71, 0
-9.29,5.63,-3.40, 0
-9.65,5.15,-3.59, 0
-9.45,3.40,-2.79, 0
-8.98,1.61,-3.28, 0
-9.25,1.96,-3.60, 0
-8.88,2.85,-2.88, 0
-8.42,3.17,-2.41, 0
-8.32,2.79,-2.71, 0
-7.93,2.20,-2.90, 0
-7.87,2.28,-2.78, 0
-7.62,2.81,-2.41, 0
-7.23,2.95,-2.24, 0
-7.42,3.61,-2.53, 0
-7.65,4.10,-2.55, 0
-8.54,4.40,-2.67, 0
-11.94,3.91,-5.35, 0
-13.55,3.01,-7.77, 0
-12.84,1.93,-8.70, 0
-8.93,2.21,-4.91, 0
-6.29,3.89,-0.23, 0
-5.96,5.09,0.69, 0
-7.69,3.75,-2.55, 0
-8.67,1.06,-5.51, 0
-9.26,-1.53,-7.22, 0
-8.91,-1.30,-7.06, 0
-7.98,1.00,-5.50, 0
-6.93,2.69,-4.53, 0
-7.40,2.59,-4.62, 0
-7.84,1.93,-5.44, 0
-8.10,1.12,-5.88, 0
-7.97,1.22,-5.74, 0
-7.76,2.29,-4.95, 0
-7.86,3.19,-5.14, 0
-7.85,3.48,-5.51, 0
-7.77,3.01,-5.93, 0
-7.53,2.28,-6.53, 0
-7.52,1.65,-6.96, 0
-7.53,1.31,-7.19, 0
-7.54,1.22,-7.34, 0
-7.47,0.98,-7.64, 0
-7.35,0.34,-7.87, 0
-7.06,-0.45,-8.11, 0
-6.79,-0.59,-7.88, 0
-7.14,-0.64,-7.69, 0
-7.60,-0.29,-7.68, 0
-7.50,0.36,-7.61, 0
-7.19,1.03,-7.36, 0
-6.74,1.23,-7.13, 0
-6.61,0.97,-7.22, 0
-6.55,0.23,-7.38, 0
-6.70,-0.38,-7.56, 0
-7.15,-0.74,-7.68, 0
-7.55,-1.09,-7.58, 0
-7.81,-1.23,-7.24, 0
-8.06,-0.74,-6.96, 0
-8.29,-0.52,-6.86, 0
-8.19,-1.26,-5.61, 0
-8.54,0.34,-3.37, 0
-7.10,1.64,-2.62, 0
-7.46,1.18,-6.09, 0
-8.60,-0.40,-8.04, 0
-8.00,-0.37,-6.43, 0
-6.94,1.79,-3.97, 0
-7.48,3.67,-2.34, 0
-8.90,4.14,-2.82, 0
-10.33,3.28,-4.85, 0
-10.87,3.71,-6.43, 0
-10.30,3.73,-5.71, 0
-9.86,3.73,-4.09, 0
-7.55,4.61,-3.31, 0
-7.20,4.72,-3.04, 0
-7.34,3.29,-3.73, 0
-7.19,1.44,-4.91, 0
-8.50,-0.20,-5.84, 0
-8.53,-0.68,-5.49, 0
-8.75,-1.03,-4.62, 0
-9.43,-0.48,-4.24, 0
-9.77,0.24,-4.26, 0
-8.72,1.73,-3.88, 0
-8.12,2.31,-3.37, 0
-8.78,2.66,-3.77, 0
-8.72,2.78,-4.23, 0
-8.44,2.30,-4.25, 0
-8.16,1.26,-3.53, 0
-8.27,0.54,-3.31, 0
-8.44,0.23,-3.60, 0
-8.45,0.64,-4.00, 0
-8.48,1.26,-3.64, 0
-8.55,1.69,-3.38, 0
-8.44,2.17,-3.75, 0
-8.57,2.28,-3.98, 0
-8.59,2.37,-3.98, 0
-8.63,2.12,-3.91, 0
-8.34,2.45,-3.78, 0
-8.20,2.77,-3.71, 0
-8.33,2.69,-3.63, 0
-8.18,2.38,-3.41, 0
-7.96,2.03,-3.55, 0
-7.88,1.83,-3.78, 0
-7.71,2.04,-3.59, 0
-8.83,2.62,-3.59, 0
-7.88,3.34,-4.47, 0
-7.32,3.24,-4.59, 0
-8.03,2.74,-3.85, 0
-11.96,1.99,-4.18, 0
-13.59,1.73,-8.02, 0
-10.32,0.48,-8.58, 0
-7.62,0.52,-3.86, 0
-6.89,2.66,-1.65, 0
-6.79,4.33,-1.75, 0
-7.57,3.52,-3.50, 0
-8.55,0.93,-5.28, 0
-8.94,-1.17,-6.51, 0
-9.02,-1.42,-6.75, 0
-8.35,0.09,-6.41, 0
-8.12,1.36,-4.41, 0
-8.25,1.56,-3.36, 0
-8.70,0.78,-3.61, 0
-8.72,-0.15,-4.39, 0
-8.57,-0.94,-5.37, 0
-8.12,-0.86,-5.91, 0
-8.45,-0.24,-5.84, 0
-8.16,1.14,-5.58, 0
-8.28,1.85,-4.82, 0
-8.07,1.74,-4.96, 0
-7.85,2.01,-5.53, 0
-8.43,1.68,-6.25, 0
-8.41,1.13,-6.59, 0
-8.27,0.75,-6.15, 0
-7.98,0.51,-5.58, 0
-7.92,0.40,-5.21, 0
-7.99,0.58,-5.42, 0
-8.52,0.63,-5.37, 0
-8.50,0.80,-5.67, 0
-8.51,0.34,-6.45, 0
-8.28,0.09,-6.86, 0
-8.76,-0.86,-6.36, 0
-9.30,0.46,-2.14, 0
-6.47,3.71,0.77, 0
-7.55,3.65,-2.09, 0
-8.96,0.40,-7.37, 0
-9.64,-3.79,-8.14, 0
-8.05,-3.95,-5.30, 0
-7.79,-0.47,-2.89, 0
-7.94,3.20,-1.53, 0
-8.29,4.18,-1.10, 0
-9.40,1.27,-3.14, 0
-9.89,-0.72,-5.37, 0
-9.87,0.07,-5.21, 0
-9.79,0.62,-3.43, 0
-9.10,0.72,-2.33, 0
-8.06,-0.24,-2.33, 0
-7.94,-1.39,-2.98, 0
-8.94,-1.94,-3.33, 0
-9.50,-0.74,-3.40, 0
-10.25,1.47,-3.14, 0
-11.35,3.38,-3.43, 0
-12.07,3.57,-3.96, 0
-11.54,2.47,-4.23, 0
-10.72,1.42,-3.69, 0
-9.79,0.88,-2.63, 0
-8.97,0.53,-1.88, 0
-8.25,0.23,-1.74, 0
-7.55,-0.02,-1.80, 0
-6.80,-0.03,-1.28, 0
-6.99,0.27,-0.43, 0
-7.66,1.15,-0.60, 0
-8.87,1.49,-1.32, 0
-10.25,1.16,-2.34, 0
-10.95,0.99,-3.85, 0
-10.51,0.50,-3.79, 0
-9.47,-0.29,-3.48, 0
-8.16,-0.72,-3.23, 0
-7.67,-0.96,-2.46, 0
-7.39,-1.25,-2.34, 0
-8.57,-0.81,-3.54, 0
-11.00,0.26,-5.27, 0
-10.60,1.86,-6.63, 0
-8.63,2.31,-4.46, 0
-5.93,2.62,-1.42, 0
-6.66,2.47,-0.75, 0
-9.22,1.51,-3.54, 0
-10.51,0.35,-6.06, 0
-9.95,-0.07,-6.88, 0
-8.34,0.68,-5.70, 0
-7.37,1.04,-3.86, 0
-7.40,1.01,-3.86, 0
-8.38,1.28,-5.33, 0
-9.07,1.97,-6.11, 0
-9.48,2.75,-6.48, 0
-9.01,3.47,-6.63, 0
-8.28,3.10,-5.85, 0
-7.74,2.30,-5.41, 0
-7.63,1.76,-5.28, 0
-7.75,1.36,-5.43, 0
-7.86,1.01,-5.25, 0
-7.98,1.04,-5.15, 0
-7.95,1.27,-5.15, 0
-8.04,1.93,-5.09, 0
-8.17,2.51,-4.91, 0
-7.85,2.56,-5.02, 0
-8.04,2.57,-5.08, 0
-8.51,2.61,-5.13, 0
-10.32,2.05,-4.17, 0
-8.26,2.33,-2.47, 0
-7.42,1.23,-2.63, 0
-8.06,0.90,-5.36, 0
-8.39,1.54,-6.62, 0
-8.03,2.56,-6.21, 0
-8.12,3.15,-5.56, 0
-7.54,2.86,-5.20, 0
-7.72,2.53,-5.27, 0
-7.98,2.23,-5.19, 0
-7.84,1.68,-5.60, 0
-8.17,1.10,-5.77, 0
-7.98,1.13,-5.87, 0
-7.92,2.23,-5.26, 0
-8.56,3.25,-4.83, 0
-9.06,3.71,-5.06, 0
-9.13,3.65,-5.67, 0
-8.81,2.82,-5.70, 0
-8.39,2.15,-5.48, 0
-7.71,1.98,-5.61, 0
-7.44,1.71,-5.32, 0
-7.26,1.74,-5.18, 0
-7.19,2.04,-4.90, 0
-7.33,2.65,-5.14, 0
-7.49,3.13,-5.23, 0
-7.42,3.84,-5.19, 0
-7.47,4.11,-5.41, 0
-7.60,3.93,-5.70, 0
-7.27,3.66,-5.38, 0
-7.09,3.56,-5.07, 0
-7.64,3.00,-5.01, 0
-7.64,2.46,-4.91, 0
-7.75,2.50,-4.83, 0
-8.03,2.81,-5.07, 0
-8.44,2.28,-5.46, 0
-9.10,1.53,-5.47, 0
-9.45,1.22,-4.61, 0
-8.30,1.31,-3.99, 0
-7.77,1.48,-4.18, 0
-7.56,2.05,-4.93, 0
-7.38,3.04,-5.64, 0
-7.72,3.65,-5.80, 0
-7.78,3.65,-5.27, 0
-7.71,3.19,-4.61, 0
-7.80,2.75,-4.20, 0
-8.05,2.44,-4.56, 0
-8.40,2.17,-5.04, 0
-8.53,2.18,-5.43, 0
-8.29,2.27,-5.60, 0
-7.89,2.30,-5.65, 0
-7.82,2.28,-5.38, 0
-7.70,2.01,-4.72, 0
-7.75,1.50,-4.03, 0
-7.72,0.65,-3.69, 0
-8.18,0.17,-3.47, 0
-7.68,0.87,-2.89, 0
-8.70,2.35,-2.93, 0
-9.71,4.39,-4.30, 0
-11.03,5.38,-7.33, 0
-12.17,5.64,-9.33, 0
-11.69,4.65,-8.57, 0
-9.58,3.48,-5.53, 0
-7.32,2.71,-2.72, 0
-7.11,2.51,-1.57, 0
-7.07,2.81,-2.13, 0
-7.61,2.51,-3.77, 0
-7.67,1.66,-4.02, 0
-6.80,1.39,-3.05, 0
-6.19,0.99,-2.04, 0
-6.75,1.25,-2.21, 0
-7.48,1.86,-3.31, 0
-8.35,2.35,-4.22, 0
-8.44,2.30,-4.64, 0
-8.58,2.16,-5.03, 0
-8.78,2.85,-4.82, 0
-8.42,3.40,-4.95, 0
-8.59,3.86,-5.45, 0
-8.58,4.13,-5.69, 0
-8.38,4.05,-5.34, 0
-8.48,3.47,-5.38, 0
-8.49,3.21,-5.28, 0
-8.77,3.29,-4.91, 0
-9.65,3.74,-4.46, 0
-9.84,4.49,-5.04, 0
-9.78,4.21,-6.18, 0
-8.69,3.25,-5.27, 0
-7.41,2.31,-3.12, 0
-6.59,1.50,-1.14, 0
-6.54,1.21,-1.15, 0
-7.47,1.70,-1.86, 0
-8.58,2.01,-1.75, 0
-8.77,1.79,-2.44, 0
-8.80,1.07,-3.54, 0
-9.13,0.56,-4.33, 0
-10.57,0.80,-5.54, 0
-11.34,1.92,-7.66, 0
-9.69,2.73,-7.54, 0
-8.54,3.10,-4.40, 0
-6.84,3.51,-2.20, 0
-7.83,3.36,-2.66, 0
-8.63,1.37,-5.44, 0
-8.41,-1.29,-6.92, 0
-7.47,-2.02,-6.43, 0
-6.91,-0.82,-5.31, 0
-6.18,2.19,-4.31, 0
-7.22,5.07,-3.89, 0
-7.84,6.26,-5.49, 0
-8.30,4.58,-6.77, 0
-8.87,2.88,-7.29, 0
-7.83,1.40,-6.26, 0
-7.02,1.23,-5.70, 0
-7.12,2.37,-5.83, 0
-7.70,3.53,-5.95, 0
-7.98,3.78,-6.27, 0
-8.11,3.50,-6.12, 0
-8.02,3.67,-5.34, 0
-7.70,3.22,-4.85, 0
-7.49,2.70,-4.48, 0
-7.60,2.62,-4.47, 0
-7.57,2.67,-4.60, 0
-7.61,2.54,-5.20, 0
-7.64,2.66,-5.55, 0
-7.82,2.87,-5.41, 0
-8.31,2.94,-5.39, 0
-8.15,3.27,-4.17, 0
-7.59,2.23,-4.08, 0
-7.72,1.55,-4.50, 0
-7.87,2.29,-5.19, 0
-7.94,3.14,-5.79, 0
-8.39,3.63,-6.00, 0
-8.23,3.61,-5.66, 0
-7.79,3.15,-5.00, 0
-7.71,2.96,-4.85, 0
-7.62,2.74,-5.24, 0
-7.54,2.74,-5.67, 0
-7.62,2.95,-5.85, 0
-7.77,3.02,-5.82, 0
-7.64,2.93,-5.84, 0
-7.52,3.03,-5.74, 0
-7.48,3.23,-5.45, 0
-7.15,3.52,-5.31, 0
-7.14,3.71,-5.44, 0
-7.35,3.77,-5.96, 0
-7.26,3.75,-6.30, 0
-7.08,3.71,-6.16, 0
-6.79,3.76,-5.77, 0
-7.14,3.39,-5.58, 0
-7.82,2.40,-5.11, 0
-8.29,1.75,-3.84, 0
-8.10,2.03,-4.33, 0
-8.42,1.70,-5.36, 0
-8.53,1.03,-6.11, 0
-8.33,-0.01,-6.23, 0
-7.83,0.31,-5.84, 0
-8.20,0.85,-5.45, 0
-8.47,1.03,-4.60, 0
-8.60,0.84,-3.61, 0
-9.20,0.75,-4.16, 0
-10.05,-0.18,-4.55, 0
-9.61,-0.67,-5.37, 0
-9.92,-0.87,-6.05, 0
-10.79,-0.54,-6.84, 0
-11.76,0.49,-7.06, 0
-11.36,1.36,-6.16, 0
-9.77,1.39,-4.54, 0
-8.60,0.29,-3.53, 0
-7.85,-0.67,-3.18, 0
-7.77,-0.83,-3.15, 0
-7.44,0.16,-2.89, 0
-7.41,1.27,-2.59, 0
-7.68,1.85,-2.43, 0
-8.20,1.69,-2.68, 0
-9.22,1.31,-3.12, 0
-9.84,1.15,-3.62, 0
-9.34,1.17,-3.90, 0
-9.01,1.08,-3.63, 0
-7.66,1.04,-2.68, 0
-7.56,0.66,-2.22, 0
-7.64,0.44,-1.77, 0
-7.81,0.29,-2.08, 0
-8.21,0.22,-2.67, 0
-7.81,-0.09,-3.06, 0
-7.90,-0.23,-3.27, 0
-8.94,-0.26,-3.76, 0
-10.27,-0.28,-5.07, 0
-12.18,-0.35,-6.67, 0
-12.13,0.08,-6.62, 0
-10.76,0.31,-5.42, 0
-9.50,0.93,-3.73, 0
-8.44,1.72,-2.88, 0
-8.19,1.54,-2.39, 0
-7.79,1.43,-2.43, 0
-8.07,1.08,-2.19, 0
-8.67,0.75,-2.15, 0
-8.90,0.75,-3.07, 0
-9.50,0.87,-3.80, 0
-9.61,1.26,-3.64, 0
-9.52,1.51,-2.83, 0
-9.31,1.62,-2.24, 0
-9.47,1.47,-2.28, 0
-8.83,1.59,-2.85, 0
-8.51,1.40,-3.01, 0
-8.12,1.22,-2.33, 0
-7.59,1.37,-1.21, 0
-7.57,1.36,-0.46, 0
-7.57,1.09,-0.85, 0
-7.73,0.51,-1.94, 0
-8.57,-0.15,-2.53, 0
-9.63,-0.17,-3.31, 0
-10.57,-0.07,-3.96, 0
-10.33,0.13,-4.82, 0
-10.10,-0.35,-4.91, 0
-11.06,-0.65,-5.91, 0
-11.15,-0.06,-7.76, 0
-9.10,1.02,-6.22, 0
-7.26,1.32,-1.67, 0
-6.83,2.29,-1.57, 0
-7.24,2.19,-3.39, 0
-8.71,1.28,-6.06, 0
-9.49,0.70,-6.58, 0
-8.30,1.45,-6.18, 0
-7.90,2.50,-5.26, 0
-7.97,2.52,-5.40, 0
-7.95,1.62,-5.98, 0
-8.12,0.67,-6.85, 0
-8.36,0.23,-7.34, 0
-8.04,0.32,-6.79, 0
-7.69,0.52,-6.10, 0
-7.41,0.68,-5.78, 0
-7.50,0.72,-5.73, 0
-7.46,0.48,-6.13, 0
-7.63,0.17,-6.48, 0
-7.54,0.15,-6.42, 0
-7.41,0.76,-6.08, 0
-7.71,1.42,-5.87, 0
-7.83,1.58,-6.40, 0
-7.98,1.54,-6.54, 0
-7.94,1.32,-6.67, 0
-7.82,1.15,-6.60, 0
-7.90,0.80,-6.35, 0
-7.76,0.43,-6.32, 0
-7.43,0.09,-6.30, 0
-7.52,-0.02,-6.35, 0
-7.85,0.01,-6.35, 0
-7.96,-0.08,-6.17, 0
-7.66,-0.34,-5.81, 0
-7.40,-0.20,-5.40, 0
-7.34,0.09,-5.59, 0
-8.03,-0.36,-6.67, 0
-8.06,-1.23,-6.72, 0
-7.91,-1.79,-6.42, 0
-7.86,-1.52,-6.13, 0
-7.74,-1.29,-6.18, 0
-7.80,-1.21,-6.42, 0
-7.73,-0.91,-6.79, 0
-7.81,-0.37,-6.64, 0
-7.64,0.10,-6.42, 0
-7.62,0.35,-6.44, 0
-7.67,0.39,-6.61, 0
-7.51,0.34,-6.47, 0
-7.47,0.37,-6.09, 0
-7.67,0.29,-5.98, 0
-7.82,0.14,-6.10, 0
-7.96,0.08,-6.47, 0
-8.03,0.38,-6.53, 0
-7.99,0.84,-6.36, 0
-7.81,1.20,-6.03, 0
-7.66,1.64,-5.85, 0
-7.68,1.60,-5.96, 0
-7.60,1.52,-6.04, 0
-7.54,1.63,-6.36, 0
-7.65,1.81,-6.45, 0
-7.77,1.91,-6.15, 0
-7.61,2.32,-5.70, 0
-7.59,2.46,-5.39, 0
-7.97,1.88,-5.39, 0
-8.44,0.55,-5.42, 0
-8.54,-0.72,-5.02, 0
-8.13,-1.02,-4.72, 0
-8.27,-0.95,-4.94, 0
-8.16,-0.64,-5.19, 0
-7.64,-0.09,-5.43, 0
-7.83,0.18,-5.61, 0
-7.97,0.04,-5.23, 0
-7.47,-0.04,-4.22, 0
-8.15,0.30,-3.14, 0
-8.72,1.82,-3.36, 0
-9.00,4.13,-4.77, 0
-10.06,5.55,-7.26, 0
-11.89,5.76,-8.19, 0
-11.19,6.01,-6.45, 0
-9.64,5.11,-4.69, 0
-8.44,3.66,-3.28, 0
-7.84,2.68,-3.32, 0
-7.56,2.11,-3.44, 0
-7.01,2.48,-3.36, 0
-6.90,3.07,-2.82, 0
-6.88,2.83,-2.28, 0
-7.06,2.71,-2.45, 0
-7.15,2.19,-3.00, 0
-7.09,2.20,-3.19, 0
-7.81,2.22,-3.40, 0
-8.82,2.69,-3.62, 0
-9.88,2.98,-4.00, 0
-10.68,3.42,-4.54, 0
-10.68,3.52,-4.58, 0
-9.87,3.14,-4.30, 0
-9.44,2.51,-3.31, 0
-8.27,2.27,-2.82, 0
-7.73,1.70,-2.40, 0
-7.66,1.51,-2.15, 0
-7.34,1.60,-2.10, 0
-7.24,1.80,-2.04, 0
-7.26,2.33,-2.24, 0
-7.84,2.79,-2.50, 0
-8.92,3.41,-2.95, 0
-9.30,3.94,-3.32, 0
-9.18,3.89,-3.35, 0
-8.87,3.31,-3.23, 0
-8.63,2.91,-3.41, 0
-8.57,3.07,-3.69, 0
-8.52,3.20,-3.55, 0
-8.38,2.75,-3.35, 0
-8.14,2.19,-3.66, 0
-8.13,2.05,-3.87, 0
-8.44,2.32,-3.70, 0
-8.77,3.25,-3.49, 0
-9.96,3.79,-3.69, 0
-11.45,3.66,-5.02, 0
-11.31,3.08,-5.97, 0
-9.75,2.49,-4.13, 0
-7.95,2.70,-2.15, 0
-7.39,2.73,-1.67, 0
-8.18,2.46,-2.12, 0
-8.75,1.69,-3.60, 0
-9.03,0.81,-4.57, 0
-9.17,0.67,-4.25, 0
-9.04,0.51,-4.45, 0
-8.19,-0.21,-4.22, 0
-7.97,-0.70,-4.22, 0
-8.05,-0.67,-4.11, 0
-8.66,-0.35,-4.65, 0
-8.84,0.06,-4.72, 0
-8.50,0.29,-4.71, 0
-8.27,0.35,-4.29, 0
-8.16,0.51,-4.54, 0
-7.87,0.49,-4.87, 0
-7.70,0.13,-5.80, 0
-7.96,-0.42,-6.21, 0
-8.12,-0.35,-6.05, 0
-8.37,0.36,-5.66, 0
-8.83,1.37,-6.49, 0
-8.96,2.17,-6.85, 0
-9.19,2.81,-6.89, 0
-8.96,3.01,-6.37, 0
-8.43,2.55,-5.07, 0
-7.69,2.35,-4.38, 0
-7.84,1.81,-4.35, 0
-7.91,1.66,-4.89, 0
-8.32,1.95,-5.03, 0
-8.14,2.18,-5.08, 0
-8.26,1.87,-4.98, 0
-8.02,1.27,-5.07, 0
-7.47,1.49,-4.88, 0
-7.38,2.33,-4.57, 0
-7.50,2.89,-4.70, 0
-6.92,3.52,-4.92, 0
-7.14,4.12,-4.61, 0
-7.63,4.57,-4.63, 0
-8.06,3.97,-5.47, 0
-8.03,3.71,-6.09, 0
-8.09,4.02,-5.89, 0
-7.94,4.01,-5.16, 0
-7.69,3.27,-4.75, 0
-7.83,1.02,-6.16, 0
-9.86,1.42,-3.53, 0
-8.81,2.48,-4.90, 0
-10.93,2.20,-6.20, 0
-10.79,2.27,-6.34, 0
-9.50,2.02,-5.25, 0
-8.76,0.77,-5.80, 0
-8.43,-0.30,-5.82, 0
-7.83,-0.41,-4.91, 0
-7.47,0.08,-3.40, 0
-7.29,-0.36,-2.42, 0
-7.38,-0.88,-2.16, 0
-7.61,-0.74,-2.52, 0
-8.19,0.45,-3.15, 0
-9.24,2.31,-4.78, 0
-10.96,2.49,-6.24, 0
-11.24,4.26,-6.68, 0
-10.20,4.88,-5.12, 0
-7.69,4.90,-1.79, 0
-7.09,3.40,-1.71, 0
-9.23,2.03,-4.42, 0
-9.83,2.13,-6.38, 0
-9.43,2.80,-6.12, 0
-8.27,3.29,-4.50, 0
-7.03,2.77,-2.45, 0
-5.74,2.22,-1.92, 0
-5.68,1.80,-2.30, 0
-6.30,1.89,-2.72, 0
-6.75,2.20,-3.21, 0
-6.54,2.88,-3.82, 0
-6.99,2.67,-3.99, 0
-8.21,2.05,-3.21, 0
-8.52,1.53,-3.54, 0
-8.72,1.70,-4.59, 0
-9.81,2.93,-5.74, 0
-12.08,4.04,-5.77, 0
-11.50,5.29,-8.07, 0
-10.76,3.20,-8.50, 0
-10.65,1.70,-5.02, 0
-8.60,0.74,-2.73, 0
-7.75,1.17,-2.08, 0
-7.67,2.67,-1.94, 0
-7.80,3.86,-3.10, 0
-8.62,2.46,-5.44, 0
-9.52,0.89,-7.09, 0
-8.19,0.27,-6.43, 0
-7.94,-0.08,-4.41, 0
-8.06,-0.22,-3.62, 0
-7.60,-0.23,-4.21, 0
-7.50,0.45,-5.05, 0
-7.31,1.37,-4.83, 0
-7.41,1.92,-4.79, 0
-8.03,2.07,-5.18, 0
-8.38,2.35,-6.01, 0
-8.51,2.48,-6.58, 0
-8.22,2.41,-6.34, 0
-7.87,1.89,-5.53, 0
-7.94,1.49,-5.28, 0
-7.52,1.60,-5.15, 0
-7.46,1.96,-5.21, 0
-7.68,2.39,-5.61, 0
-7.53,2.65,-5.72, 0
-7.42,2.89,-5.61, 0
-7.29,3.12,-5.20, 0
-6.81,3.10,-4.77, 0
-6.96,2.83,-4.54, 0
-6.94,2.78,-4.31, 0
-7.56,2.61,-5.10, 0
-8.26,2.19,-5.75, 0
-7.94,1.25,-6.59, 0
-10.48,0.01,-4.85, 0
-7.65,1.82,-2.94, 0
-6.99,3.31,-2.82, 0
-8.63,4.42,-4.72, 0
-10.59,4.73,-7.97, 0
-12.26,2.75,-11.58, 0
-12.69,0.43,-11.86, 0
-10.47,-0.06,-7.55, 0
-7.99,0.00,-2.96, 0
-5.98,-0.66,-0.22, 0
-5.95,-1.35,-1.31, 0
-6.66,-1.94,-2.74, 0
-7.10,-1.73,-3.43, 0
-7.59,-0.70,-3.37, 0
-9.10,0.74,-3.58, 0
-10.52,3.29,-4.52, 0
-11.24,4.58,-5.87, 0
-10.73,5.05,-6.22, 0
-9.80,4.25,-5.64, 0
-8.89,3.13,-4.34, 0
-7.97,1.95,-2.81, 0
-7.52,1.20,-2.87, 0
-7.68,1.39,-3.51, 0
-7.72,1.47,-3.53, 0
-7.12,1.63,-2.87, 0
-6.89,1.79,-2.56, 0
-7.28,1.78,-3.10, 0
-7.76,1.99,-3.93, 0
-8.22,2.40,-4.84, 0
-8.09,2.49,-4.87, 0
-7.59,2.51,-4.20, 0
-7.18,2.63,-3.35, 0
-7.46,3.11,-3.26, 0
-7.99,3.77,-3.92, 0
-7.68,4.18,-4.78, 0
-8.12,4.70,-4.71, 0
-8.06,5.13,-4.65, 0
-8.48,4.68,-4.40, 0
-12.25,2.31,-6.05, 0
-13.31,-0.14,-8.86, 0
-10.56,-1.04,-6.68, 0
-8.18,-1.93,-2.72, 0
-8.38,-0.43,-1.94, 0
-7.93,2.57,-3.59, 0
-8.04,3.88,-4.20, 0
-8.65,2.16,-4.47, 0
-9.40,0.09,-5.45, 0
-8.72,-1.03,-5.98, 0
-6.75,-0.61,-4.50, 0
-6.57,-0.28,-3.94, 0
-7.73,0.99,-4.51, 0
-8.26,2.27,-5.19, 0
-8.46,3.43,-5.45, 0
-8.21,3.59,-5.33, 0
-8.36,2.62,-5.78, 0
-8.42,1.64,-6.42, 0
-8.52,1.55,-6.37, 0
-8.31,1.73,-5.58, 0
-7.80,2.19,-4.78, 0
-7.81,2.54,-4.76, 0
-8.06,2.71,-5.35, 0
-8.32,2.66,-5.56, 0
-8.25,2.30,-5.22, 0
-7.96,2.02,-4.79, 0
-7.79,1.78,-4.15, 0
-7.71,1.45,-4.18, 0
-7.55,1.11,-5.00, 0
-7.98,0.98,-5.81, 0
-7.74,1.35,-6.24, 0
-7.65,1.82,-6.13, 0
-7.79,2.18,-5.68, 0
-7.56,2.48,-5.62, 0
-7.35,3.25,-5.72, 0
-7.40,3.60,-5.22, 0
-8.98,1.88,-4.42, 0
-8.71,1.17,-1.24, 0
-6.31,1.71,-1.50, 0
-6.54,0.65,-3.14, 0
-9.16,-1.36,-5.56, 0
-11.63,-1.91,-7.94, 0
-13.06,-0.22,-10.65, 0
-11.27,3.51,-7.98, 0
-8.17,4.41,-2.99, 0
-6.75,3.49,0.02, 0
-7.82,2.96,-1.21, 0
-10.21,3.87,-3.15, 0
-11.16,5.22,-5.02, 0
-10.61,4.25,-5.70, 0
-9.61,2.57,-5.30, 0
-8.40,1.20,-3.06, 0
-7.47,1.28,-1.77, 0
-8.50,1.24,-2.38, 0
-6.92,1.87,-3.38, 0
-7.59,0.29,-3.57, 0
-7.30,-0.06,-3.40, 0
-7.32,-0.38,-3.47, 0
-7.33,-0.00,-3.92, 0
-8.38,0.40,-5.02, 0
-9.40,0.83,-6.33, 0
-9.68,1.52,-6.49, 0
-9.16,2.87,-4.34, 0
-8.98,3.83,-2.75, 0
-9.89,4.03,-3.41, 0
-9.36,2.54,-4.34, 0
-8.79,0.72,-4.33, 0
-8.00,0.45,-3.64, 0
-7.47,1.01,-3.14, 0
-7.18,1.98,-3.68, 0
-8.26,2.91,-3.34, 0
-9.08,3.60,-3.10, 0
-9.73,3.71,-3.68, 0
-9.92,3.27,-4.83, 0
-9.52,2.45,-5.24, 0
-8.74,1.56,-4.08, 0
-7.96,1.41,-2.71, 0
-7.80,2.03,-2.01, 0
-8.17,2.56,-2.02, 0
-8.54,2.51,-2.44, 0
-8.08,2.09,-2.66, 0
-7.98,1.58,-2.68, 0
-7.73,1.43,-2.95, 0
-7.74,1.50,-3.26, 0
-8.21,1.95,-4.82, 0
-9.34,2.42,-5.86, 0
-11.40,2.84,-7.09, 0
-13.31,3.67,-8.73, 0
-10.88,2.89,-8.09, 0
-7.20,1.00,-3.42, 0
-5.58,1.79,0.36, 0
-7.17,3.73,-1.95, 0
-8.28,3.46,-3.88, 0
-9.56,0.56,-6.39, 0
-8.86,-1.58,-6.52, 0
-7.77,-1.43,-5.19, 0
-7.18,0.19,-3.91, 0
-7.47,1.39,-3.89, 0
-7.99,1.59,-5.19, 0
-8.23,1.31,-6.60, 0
-8.25,1.31,-6.84, 0
-7.77,1.40,-6.36, 0
-7.47,1.52,-5.87, 0
-7.58,1.46,-5.78, 0
-7.44,1.49,-5.51, 0
-7.65,1.57,-5.55, 0
-8.12,1.86,-6.23, 0
-8.69,1.97,-6.80, 0
-8.68,1.77,-6.45, 0
-8.23,1.75,-6.18, 0
-7.87,2.12,-5.66, 0
-7.79,2.51,-5.30, 0
-7.94,2.18,-5.42, 0
-7.93,2.01,-5.80, 0
-7.86,1.85,-5.99, 0
-7.63,2.36,-6.06, 0
-7.68,2.65,-5.64, 0
-7.29,2.65,-5.16, 0
-7.02,2.75,-4.89, 0
-7.06,3.03,-4.96, 0
-7.33,3.03,-5.33, 0
-7.38,3.08,-5.63, 0
-6.88,2.89,-5.58, 0
-6.56,2.54,-5.12, 0
-5.02,0.33,-5.43, 0
-10.32,-1.16,-1.03, 0
-8.44,2.59,-0.48, 0
-12.30,4.57,-5.46, 0
-14.89,2.60,-12.82, 0
-12.77,0.47,-12.74, 0
-8.45,-0.64,-8.06, 0
-5.49,0.23,0.10, 0
-4.92,3.60,1.41, 0
-8.96,7.54,-1.01, 0
-10.49,7.88,-3.84, 0
-11.27,4.45,-5.93, 0
-8.79,1.62,-5.83, 0
-6.89,0.62,-3.76, 0
-6.78,2.85,-1.35, 0
-6.31,5.35,-0.76, 0
-7.48,4.07,-1.55, 0
-6.74,1.95,-3.50, 0
-6.68,-0.38,-4.92, 0
-8.09,-0.73,-4.69, 0
-8.51,0.59,-4.75, 0
-9.90,2.32,-5.49, 0
-10.89,3.83,-6.28, 0
-10.48,4.85,-6.39, 0
-9.77,4.38,-5.05, 0
-9.16,2.99,-4.38, 0
-8.56,1.81,-4.25, 0
-7.82,1.21,-3.60, 0
-7.22,1.23,-2.86, 0
-7.13,1.37,-2.15, 0
-7.23,1.44,-2.14, 0
-7.59,1.55,-2.85, 0
-8.02,1.94,-3.60, 0
-7.47,2.86,-4.34, 0
-7.57,3.58,-3.97, 0
-7.49,3.57,-3.73, 0
-9.81,2.87,-3.80, 0
-11.19,3.59,-7.30, 0
-11.76,3.11,-8.48, 0
-9.28,2.95,-5.58, 0
-7.76,2.79,-3.01, 0
-7.82,3.59,-2.35, 0
-8.77,3.27,-2.45, 0
-8.46,1.26,-2.95, 0
-8.42,-0.38,-4.29, 0
-8.49,-0.91,-5.62, 0
-8.02,-0.97,-5.93, 0
-7.29,-0.72,-5.59, 0
-6.90,-0.00,-5.13, 0
-7.89,1.31,-4.72, 0
-8.24,3.02,-4.93, 0
-8.41,4.48,-4.98, 0
-8.81,5.22,-5.29, 0
-8.84,4.49,-5.94, 0
-8.73,2.92,-6.27, 0
-8.35,1.57,-5.73, 0
-7.71,0.75,-4.98, 0
-7.24,0.63,-4.60, 0
-7.47,1.47,-4.90, 0
-7.79,2.46,-5.76, 0
-7.93,3.14,-5.99, 0
-7.79,3.43,-5.73, 0
-7.24,3.36,-4.69, 0
-6.30,3.43,-4.19, 0
-6.04,3.66,-4.03, 0
-6.76,3.56,-4.39, 0
-8.03,3.07,-5.28, 0
-8.33,2.50,-6.78, 0
-8.95,2.20,-7.33, 0
-9.50,1.22,-6.41, 0
-9.41,0.86,-2.72, 0
-7.62,1.33,-2.80, 0
-7.77,2.46,-2.41, 0
-6.69,3.24,-3.64, 0
-7.50,2.41,-6.27, 0
-9.88,2.31,-9.04, 0
-11.68,3.30,-9.27, 0
-11.03,4.26,-6.86, 0
-8.79,3.46,-3.20, 0
-8.10,1.44,-2.76, 0
-7.98,-0.73,-3.59, 0
-7.37,-1.88,-3.98, 0
-6.93,-1.64,-3.21, 0
-6.50,-0.72,-2.45, 0
-7.45,0.32,-2.41, 0
-9.34,1.51,-3.02, 0
-11.10,3.79,-4.49, 0
-12.15,5.38,-6.39, 0
-11.81,5.44,-7.72, 0
-10.51,4.02,-6.59, 0
-8.06,2.50,-3.35, 0
-6.18,1.61,-1.89, 0
-6.77,1.70,-2.17, 0
-6.03,2.13,-2.48, 0
-7.00,2.27,-3.80, 0
-6.40,2.34,-2.28, 0
-6.23,2.57,-2.70, 0
-6.82,2.27,-3.51, 0
-6.64,2.44,-3.67, 0
-6.93,3.68,-3.76, 0
-7.98,5.26,-4.04, 0
-9.18,6.85,-4.77, 0
-10.28,7.32,-5.27, 0
-12.51,5.31,-7.16, 0
-13.66,2.71,-9.52, 0
-11.45,1.08,-8.44, 0
-8.68,-0.68,-3.77, 0
-5.75,-1.88,-0.10, 0
-5.25,-2.27,-0.27, 0
-6.76,-1.03,-2.66, 0
-9.09,-0.17,-4.81, 0
-9.70,0.74,-6.23, 0
-9.97,1.06,-6.76, 0
-8.31,1.48,-5.24, 0
-6.70,1.14,-4.96, 0
-6.90,0.11,-4.73, 0
-6.83,-0.42,-4.62, 0
-7.68,0.16,-5.00, 0
-8.48,1.84,-5.41, 0
-9.70,2.64,-6.29, 0
-10.42,3.04,-7.09, 0
-9.98,1.96,-7.63, 0
-9.20,1.36,-7.64, 0
-8.45,1.45,-6.50, 0
-7.62,1.57,-5.65, 0
-7.39,1.32,-5.49, 0
-7.19,0.89,-5.64, 0
-7.30,0.21,-5.98, 0
-7.06,-0.48,-6.07, 0
-7.19,-0.35,-5.65, 0
-7.53,0.29,-5.81, 0
-7.89,0.57,-6.18, 0
-7.63,1.38,-5.82, 0
-7.97,2.24,-4.72, 0
-9.65,2.33,-3.65, 0
-9.06,3.07,-3.57, 0
-9.27,3.95,-4.51, 0
-10.27,3.70,-6.20, 0
-11.63,1.22,-7.10, 0
-10.72,-0.45,-6.84, 0
-8.86,-1.16,-4.89, 0
-6.83,-1.24,-2.79, 0
-5.11,-1.47,-0.89, 0
-6.64,-0.53,-2.53, 0
-7.98,0.83,-4.13, 0
-8.43,2.71,-4.62, 0
-7.96,4.17,-4.17, 0
-7.35,4.06,-3.88, 0
-7.73,3.48,-3.50, 0
-8.84,3.46,-3.71, 0
-9.13,4.05,-3.81, 0
-9.23,4.82,-3.92, 0
-9.07,5.05,-3.79, 0
-8.61,4.86,-3.73, 0
-7.73,4.05,-3.08, 0
-7.56,3.22,-1.65, 0
-7.60,2.43,-2.04, 0
-7.70,1.83,-1.72, 0
-8.87,2.11,-2.51, 0
-8.76,1.64,-2.12, 0
-8.48,1.96,-2.74, 0
-8.77,1.66,-2.95, 0
-7.93,1.81,-2.71, 0
-8.29,2.06,-2.54, 0
-9.40,2.11,-3.43, 0
-11.52,2.68,-6.34, 0
-13.74,2.14,-9.74, 0
-10.99,2.39,-8.79, 0
-8.12,3.43,-3.99, 0
-4.99,5.98,-1.14, 0
-6.39,6.10,-0.47, 0
-8.18,3.46,-2.20, 0
-9.47,0.24,-5.59, 0
-8.55,-0.91,-6.07, 0
-7.16,0.77,-5.40, 0
-6.49,2.37,-4.80, 0
-6.50,2.22,-5.34, 0
-6.83,1.76,-6.44, 0
-7.23,1.62,-5.90, 0
-7.68,2.06,-5.61, 0
-8.37,3.13,-6.52, 0
-9.50,4.72,-7.23, 0
-9.76,5.83,-7.06, 0
-8.98,5.50,-5.92, 0
-7.83,4.26,-4.64, 0
-7.16,2.87,-4.42, 0
-7.09,2.09,-4.79, 0
-7.02,1.85,-5.16, 0
-7.16,1.90,-5.20, 0
-7.75,2.71,-5.58, 0
-7.00,3.12,-4.66, 0
-7.72,4.19,-5.14, 0
-7.22,4.77,-4.57, 0
-7.33,3.32,-3.63, 0
-8.72,4.16,-5.28, 0
-8.30,2.59,-5.77, 0
-8.59,1.72,-6.33, 0
-8.40,1.05,-4.17, 0
-8.02,1.10,-4.48, 0
-7.79,0.67,-4.87, 0
-7.27,2.52,-4.80, 0
-8.57,4.46,-6.66, 0
-10.94,5.03,-8.33, 0
-11.24,5.21,-6.72, 0
-9.52,3.50,-4.24, 0
-8.39,1.35,-3.92, 0
-7.76,0.37,-3.93, 0
-7.21,-0.37,-4.15, 0
-6.65,-0.67,-4.22, 0
-5.85,-0.71,-3.91, 0
-6.39,-0.87,-2.99, 0
-7.03,-0.62,-2.42, 0
-8.30,-0.43,-3.24, 0
-9.30,0.67,-4.05, 0
-10.27,2.73,-5.06, 0
-11.15,5.23,-4.14, 0
-11.72,6.12,-5.92, 0
-10.10,6.08,-3.16, 0
-7.40,4.96,-2.77, 0
-4.04,3.43,-2.06, 0
-6.82,8.80,-1.42, 0
-12.08,11.27,-14.60, 0
-1.12,5.89,-6.44, 0
-7.94,7.71,11.31, 0
-3.66,7.35,2.08, 0
2.01,5.72,-1.33, 0
-2.45,5.55,-2.58, 0
-3.30,6.88,-3.34, 0
-0.69,9.35,-2.11, 0
-2.72,12.17,-2.53, 0
-3.94,11.87,-3.20, 0
-3.10,9.60,-1.50, 0
-2.64,10.26,-0.80, 0
-0.63,13.10,-3.25, 0
0.78,12.37,-4.20, 0
3.18,9.39,-0.84, 0
4.16,8.87,1.11, 0
1.19,10.33,-1.75, 0
-0.22,11.58,-4.32, 0
-2.09,11.52,-4.44, 0
-1.77,9.86,-3.18, 0
-0.50,8.78,-1.12, 0
-0.71,8.47,-1.52, 0
-0.08,9.03,-1.98, 0
0.32,9.91,-2.35, 0
1.08,10.55,-2.04, 0
0.57,10.82,-1.79, 0
0.02,9.84,-2.20, 0
-0.99,9.08,-2.33, 0
-1.58,9.20,-2.23, 0
-0.99,9.75,-2.70, 0
-0.45,9.89,-2.33, 0
0.14,9.49,-2.04, 0
0.30,9.35,-2.13, 0
0.58,9.59,-2.03, 0
0.31,9.36,-2.57, 0
0.23,9.31,-3.12, 0
0.42,9.57,-2.71, 0
0.41,9.49,-2.67, 0
0.23,9.09,-2.60, 0
0.17,9.15,-2.51, 0
0.22,9.49,-2.68, 0
0.77,9.87,-3.18, 0
0.64,10.42,-3.31, 0
0.84,10.25,-2.74, 0
0.57,9.81,-2.21, 0
0.46,9.40,-2.81, 0
0.24,9.40,-3.41, 0
-0.00,9.45,-3.68, 0
-0.02,9.26,-3.87, 0
0.35,9.27,-3.64, 0
0.42,9.51,-3.46, 0
0.34,9.32,-3.28, 0
-0.91,9.45,-2.97, 0
-4.51,9.64,-1.50, 0
-2.96,8.11,-0.34, 0
-3.18,7.72,-1.23, 0
-4.93,9.21,-4.25, 0
-6.55,11.39,-6.09, 0
-4.73,13.29,-7.02, 0
-0.15,12.55,-2.16, 0
-0.07,9.81,1.20, 0
-1.65,7.67,3.75, 0
-3.43,7.46,1.63, 0
-5.53,9.05,-2.28, 0
-4.59,10.70,-4.42, 0
-2.40,11.31,-1.23, 0
-0.68,10.48,0.46, 0
-0.84,9.66,0.42, 0
-1.63,8.95,-0.52, 0
-1.31,8.68,-0.81, 0
-1.38,8.68,-1.08, 0
-1.01,8.94,0.07, 0
0.01,9.14,0.99, 0
0.35,9.38,1.56, 0
-0.19,9.18,0.86, 0
-1.15,9.17,0.19, 0
-1.69,9.38,-0.16, 0
-1.54,9.51,-0.97, 0
-0.42,9.91,-0.28, 0
-0.76,9.84,0.56, 0
-1.40,9.74,0.35, 0
-1.44,9.76,-0.20, 0
-1.95,9.57,-0.10, 0
-1.98,9.47,-0.07, 0
-1.72,9.56,-0.16, 0
-1.44,9.60,0.17, 0
-1.46,9.49,0.11, 0
-1.48,9.37,0.16, 0
-1.14,9.48,0.26, 0
-1.07,9.72,0.17, 0
-1.07,9.75,0.15, 0
-1.12,9.73,-0.08, 0
-0.89,9.79,-0.12, 0
-0.74,10.03,-0.05, 0
-0.67,10.15,0.20, 0
-0.86,10.01,0.22, 0
-1.35,9.82,-0.06, 0
-1.66,9.51,-0.07, 0
-1.66,9.38,0.00, 0
-1.52,9.43,0.01, 0
-1.42,9.71,-0.06, 0
-1.50,9.92,-0.16, 0
-1.48,9.79,-0.15, 0
-1.25,9.62,-0.06, 0
-1.07,9.71,0.05, 0
-0.88,9.79,0.12, 0
-0.76,9.75,0.31, 0
-0.82,9.69,0.38, 0
-0.82,9.89,0.39, 0
0.04,9.76,-0.27, 0
-1.33,9.57,-0.28, 0
-0.37,9.84,-0.01, 0
-0.61,9.92,0.88, 0
-0.23,10.13,1.29, 0
-1.33,9.75,-0.00, 0
-0.59,9.56,0.92, 0
-1.33,9.60,0.39, 0
-1.87,10.08,0.32, 0
-1.27,9.44,0.43, 0
-1.71,9.31,-0.88, 0
-1.13,9.46,0.82, 0
-0.77,11.40,1.48, 0
-2.34,10.53,-0.00, 0
-1.14,8.84,0.84, 0
-1.68,9.78,0.71, 0
-3.07,9.53,0.72, 0
-1.38,8.49,1.24, 0
-2.12,8.67,1.28, 0
-2.93,9.34,1.62, 0
-2.71,9.17,1.19, 0
-3.42,9.31,0.68, 0
-4.15,9.35,0.93, 0
-3.45,9.16,1.11, 0
-3.50,9.52,0.94, 0
-3.78,9.16,1.46, 0
-4.05,8.38,1.25, 0
-4.33,8.23,1.38, 0
-4.80,8.01,1.14, 0
-4.98,8.49,1.31, 0
-4.62,8.51,1.33, 0
-5.10,7.98,1.27, 0
-5.10,7.49,1.22, 0
-5.22,7.81,1.07, 0
-5.44,7.63,1.55, 0
-5.73,7.95,1.30, 0
-5.40,8.42,1.50, 0
-5.34,8.07,1.40, 0
-5.25,8.10,1.19, 0
-5.11,7.68,1.34, 0
-5.40,7.14,1.35, 0
-6.36,7.08,1.25, 0
-6.06,7.77,0.95, 0
-5.86,8.12,0.76, 0
-6.27,7.73,0.69, 0
-5.74,6.80,0.62, 0
-6.65,7.21,0.42, 0
-6.52,7.03,0.53, 0
-7.36,6.35,0.38, 0
-7.03,6.97,0.96, 0
-6.54,6.68,0.62, 0
-7.00,5.97,-0.05, 0
-7.11,6.65,-0.04, 0
-7.19,6.94,0.16, 0
-8.26,6.60,0.29, 0
-7.89,7.66,0.46, 0
-7.54,7.20,0.50, 0
-8.82,3.81,-0.12, 0
-8.46,0.83,-2.13, 0
-8.73,0.58,-2.75, 0
-8.82,1.18,-1.06, 0
-9.16,2.38,-0.18, 0
-9.90,2.53,0.44, 0
-9.20,1.94,0.84, 0
-9.24,1.09,0.18, 0
-8.90,2.62,-0.01, 0
-8.64,1.60,0.26, 0
-9.67,0.48,0.58, 0
-9.72,1.59,0.99, 0
-9.08,2.21,1.44, 0
-8.83,1.28,1.03, 0
-9.50,0.45,0.43, 0
-9.39,-0.09,-0.03, 0
-9.33,0.35,0.77, 0
-9.93,1.21,0.67, 0
-10.45,1.56,0.15, 0
-9.58,1.87,0.34, 0
-10.21,2.41,0.29, 0
-7.10,1.25,3.14, 0
-8.79,-0.08,0.72, 0
-8.85,0.19,0.46, 0
-10.36,2.82,-0.16, 0
-11.09,2.52,-0.93, 0
-8.47,1.26,0.03, 0
-8.22,0.59,1.35, 0
-9.96,1.51,-0.60, 0
-6.03,2.89,3.53, 0
-8.58,3.51,-0.34, 0
-7.72,3.95,-1.75, 0
-8.46,5.62,-3.51, 0
-7.85,7.06,-2.04, 0
-7.95,9.28,-1.84, 0
-8.06,6.24,1.48, 0
-8.25,5.39,-2.24, 0
-7.17,5.33,-1.09, 0
-6.66,5.43,-0.89, 0
-7.43,6.32,-2.12, 0
-7.06,6.93,-1.91, 0
-7.28,7.04,-1.81, 0
-8.08,6.22,-0.81, 0
-6.69,7.02,-1.30, 0
-8.37,6.65,-3.29, 0
-7.17,5.89,-0.12, 0
-8.27,5.76,-0.85, 0
-7.49,6.56,0.97, 0
-6.34,6.75,-0.38, 0
-8.08,3.52,-2.76, 0
-8.09,5.08,-0.46, 0
-7.41,7.11,0.84, 0
-6.78,5.96,-0.28, 0
-7.44,5.30,-1.80, 0
-8.02,4.87,-0.80, 0
-7.93,5.70,-0.92, 0
-7.55,6.39,-1.07, 0
-6.84,6.36,-0.25, 0
-7.87,5.53,-1.52, 0
-7.51,5.89,-1.59, 0
-7.13,6.89,-1.94, 0
-8.38,5.15,-3.22, 0
-7.80,6.51,-1.60, 0
-7.79,5.97,-1.83, 0
-8.31,5.42,-3.27, 0
-7.64,5.38,-2.52, 0
-7.89,4.57,-2.22, 0
-7.49,5.87,-2.14, 0
-7.40,5.36,-2.02, 0
-8.42,4.34,-1.86, 0
-8.95,3.47,-2.44, 0
-9.12,5.53,-2.84, 0
-7.10,5.21,-2.83, 0
-8.07,4.66,-1.09, 0
-9.44,4.29,-2.85, 0
-8.59,3.47,-2.68, 0
-8.21,4.55,-1.20, 0
-8.04,4.38,-1.35, 0
-9.08,2.56,-1.68, 0
-8.15,4.43,-1.30, 0
-8.08,3.84,-2.08, 0
-8.93,3.60,-0.98, 0
-8.30,3.84,-1.68, 0
-4.74,2.18,-4.02, 0
-5.97,3.25,-2.46, 0
-10.38,4.77,-0.80, 0
-9.90,6.19,-0.78, 0
-10.09,4.95,-0.45, 0
-8.68,4.54,-1.50, 0
-8.30,3.59,-1.08, 0
-8.92,3.06,-0.64, 0
-8.23,3.61,-0.63, 0
-9.01,3.58,-0.61, 0
-10.20,3.07,-2.33, 0
-9.01,3.77,-1.67, 0
-8.64,3.53,0.04, 0
-9.74,2.83,-0.81, 0
-9.76,3.80,-2.07, 0
-9.09,2.96,-0.82, 0
-9.88,1.87,-0.35, 0
-9.86,3.81,-0.68, 0
-10.11,3.49,-1.25, 0
-9.01,2.36,-0.36, 0
-7.88,2.34,1.03, 0
-8.38,2.11,0.76, 0
-9.66,1.12,0.53, 0
-8.88,2.42,-0.25, 0
-8.74,3.50,0.29, 0
-9.54,2.75,0.53, 0
-9.46,1.40,0.00, 0
-8.63,2.17,0.14, 0
-8.37,2.12,0.42, 0
-8.69,1.91,-0.10, 0
-8.98,2.70,-0.49, 0
-9.50,2.54,-0.15, 0
-8.83,2.07,0.60, 0
-9.74,2.00,-0.79, 0
-10.53,2.97,-2.92, 0
-10.41,3.39,-2.73, 0
-12.08,1.40,-2.36, 0
-10.77,1.15,-0.82, 0
-9.40,1.14,0.40, 0
-8.14,0.92,-3.52, 0
-8.63,1.47,-1.85, 0
-8.86,0.82,-1.56, 0
-9.71,0.74,-2.48, 0
-9.83,1.52,-2.50, 0
-9.02,1.36,-2.12, 0
-8.64,1.39,-1.11, 0
-9.02,1.53,-1.95, 0
-7.75,0.76,-4.01, 0
-10.18,1.45,-5.35, 0
-9.47,2.04,-0.78, 0
-7.90,2.92,-0.44, 0
-9.49,1.35,-2.18, 0
-9.75,1.31,-3.94, 0
-9.30,0.86,-3.19, 0
-9.14,1.19,-2.45, 0
-9.18,2.31,-1.81, 0
-9.24,1.86,-2.46, 0
-9.21,0.92,-2.99, 0
-9.15,0.93,-2.74, 0
-9.21,1.74,-2.37, 0
-9.31,1.78,-2.58, 0
-9.19,1.47,-2.84, 0
-9.15,1.53,-2.73, 0
-9.17,1.74,-2.58, 0
-9.01,1.77,-2.70, 0
-8.91,1.55,-2.73, 0
-8.34,1.79,-1.70, 0
-9.19,1.81,-3.03, 0
-9.45,1.77,-3.86, 0
-9.28,1.77,-3.63, 0
-9.08,1.64,-3.28, 0
-8.63,1.70,-2.53, 0
-8.76,1.66,-2.75, 0
-9.05,1.87,-3.41, 0
-9.15,1.83,-3.54, 0
-9.17,1.85,-3.35, 0
-9.26,1.73,-3.29, 0
-8.96,1.60,-3.23, 0
-8.80,1.28,-3.09, 0
-8.27,1.24,-3.02, 0
-8.55,1.18,-3.04, 0
-8.83,1.23,-3.23, 0
-9.39,1.14,-3.55, 0
-9.02,1.42,-3.39, 0
-8.98,1.38,-3.41, 0
-8.74,1.36,-3.26, 0
-9.27,1.29,-3.04, 0
-9.26,1.41,-2.74, 0
-8.84,1.95,-2.66, 0
-8.50,2.40,-2.25, 0
-8.37,2.62,-2.06, 0
-8.97,2.55,-2.34, 0
-9.69,2.25,-3.08, 0
-9.55,2.20,-3.37, 0
-9.33,1.92,-3.18, 0
-8.88,2.05,-3.13, 0
-8.76,2.21,-3.43, 0
-9.20,2.23,-3.68, 0
-9.55,1.88,-4.27, 0
-9.41,1.14,-4.41, 0
-9.27,0.43,-3.82, 0
-8.47,0.40,-3.53, 0
-8.47,0.61,-3.39, 0
-8.99,1.18,-3.36, 0
-9.48,1.93,-3.90, 0
-9.43,2.59,-3.84, 0
-9.18,2.55,-3.57, 0
-8.94,2.63,-3.02, 0
-8.62,2.30,-2.87, 0
-7.96,1.97,-2.96, 0
-7.87,1.74,-2.65, 0
-7.79,2.03,-2.89, 0
-8.28,2.31,-3.23, 0
-8.75,2.61,-3.45, 0
-9.09,2.68,-3.63, 0
-8.96,2.75,-4.16, 0
-8.89,2.98,-4.35, 0
-8.67,3.28,-3.90, 0
-8.47,2.97,-3.44, 0
-8.68,1.96,-3.27, 0
-8.96,1.09,-4.06, 0
-8.92,0.77,-4.18, 0
-8.27,1.53,-3.54, 0
-7.86,2.45,-3.06, 0
-10.74,2.17,-3.91, 0
-12.05,2.25,-7.11, 0
-10.13,1.04,-5.96, 0
-9.45,0.17,-2.96, 0
-9.93,0.26,-2.73, 0
-9.89,1.34,-5.41, 0
-8.49,2.53,-4.84, 0
-7.29,2.41,-2.24, 0
-7.67,0.64,-2.19, 0
-8.44,-1.05,-4.26, 0
-8.81,-2.33,-5.63, 0
-8.55,-3.28,-5.40, 0
-7.73,-2.91,-4.71, 0
-7.59,-1.20,-4.07, 0
-7.95,1.04,-3.93, 0
-8.36,2.13,-4.51, 0
-9.53,1.62,-5.15, 0
-9.77,1.30,-6.05, 0
-9.07,1.00,-6.06, 0
-8.85,0.02,-5.09, 0
-8.21,-0.46,-4.51, 0
-7.96,-0.37,-4.31, 0
-7.97,0.70,-4.86, 0
-8.24,1.39,-5.38, 0
-8.38,1.34,-5.31, 0
-8.46,0.60,-5.23, 0
-8.01,0.09,-4.94, 0
-7.80,-0.19,-4.67, 0
-7.25,0.05,-4.91, 0
-7.02,0.95,-5.46, 0
-7.68,2.10,-5.99, 0
-7.98,2.98,-5.96, 0
-7.82,3.62,-5.72, 0
-9.66,2.36,-5.11, 0
-11.09,2.23,-1.04, 0
-9.45,2.65,-2.81, 0
-10.54,0.78,-7.22, 0
-10.74,-0.83,-8.39, 0
-9.89,-1.19,-6.35, 0
-8.68,-0.86,-3.54, 0
-7.56,1.00,-1.79, 0
-7.53,1.21,-1.63, 0
-8.04,-0.20,-3.04, 0
-8.80,-1.06,-4.59, 0
-9.06,-0.23,-5.24, 0
-8.91,1.36,-4.43, 0
-8.56,2.28,-3.18, 0
-8.85,2.53,-3.00, 0
-9.37,2.35,-3.93, 0
-9.92,1.97,-4.46, 0
-10.55,1.55,-4.29, 0
-10.96,1.33,-3.85, 0
-10.09,1.12,-4.21, 0
-10.17,0.63,-4.29, 0
-9.19,0.91,-3.58, 0
-7.01,0.89,-3.19, 0
-6.93,0.60,-2.02, 0
-7.37,0.46,-1.95, 0
-7.98,0.84,-2.58, 0
-8.57,1.36,-3.14, 0
-8.74,1.61,-3.37, 0
-8.77,1.83,-2.97, 0
-8.45,2.03,-2.75, 0
-8.29,1.90,-2.69, 0
-8.65,1.64,-3.29, 0
-8.66,1.08,-3.26, 0
-7.99,0.62,-2.38, 0
-8.52,0.66,-2.54, 0
-9.36,0.66,-3.70, 0
-9.24,0.84,-4.24, 0
-8.35,1.19,-3.28, 0
-8.37,1.32,-3.66, 0
-10.03,1.44,-4.48, 0
-11.85,2.07,-5.49, 0
-11.88,1.99,-5.75, 0
-10.29,1.45,-3.79, 0
-7.35,1.14,-2.24, 0
-7.20,0.74,-1.92, 0
-8.11,0.80,-3.05, 0
-8.95,0.78,-4.56, 0
-9.13,1.16,-5.79, 0
-8.20,1.28,-5.97, 0
-7.24,1.12,-5.73, 0
-7.45,0.09,-5.89, 0
-7.85,-1.21,-6.25, 0
-7.77,-1.62,-6.67, 0
-7.98,-0.86,-6.74, 0
-8.08,1.10,-7.07, 0
-7.82,3.31,-6.52, 0
-8.28,4.67,-5.50, 0
-8.90,4.21,-4.95, 0
-8.72,3.19,-4.60, 0
-8.27,2.11,-4.74, 0
-8.25,1.86,-4.86, 0
-8.13,2.16,-5.09, 0
-8.10,2.33,-4.92, 0
-7.92,2.67,-4.88, 0
-8.13,2.48,-5.33, 0
-8.24,1.92,-5.52, 0
-8.04,1.83,-5.46, 0
-7.76,2.12,-5.23, 0
-7.79,2.45,-5.29, 0
-7.88,2.72,-5.44, 0
-7.53,2.81,-5.44, 0
-7.60,2.89,-5.12, 0
-7.53,2.92,-4.56, 0
-7.04,3.23,-4.57, 0
-7.57,3.34,-4.78, 0
-7.95,3.31,-5.07, 0
-8.49,0.96,-6.16, 0
-9.49,-0.23,-0.73, 0
-7.34,1.71,-0.72, 0
-9.05,1.12,-3.76, 0
-11.99,-0.67,-9.20, 0
-14.03,-3.04,-12.34, 0
-13.42,-1.38,-10.45, 0
-10.11,0.91,-5.75, 0
-6.60,1.49,-0.42, 0
-4.96,1.15,1.17, 0
-5.67,1.10,0.07, 0
-7.34,2.33,-2.32, 0
-9.12,3.48,-4.26, 0
-10.56,3.38,-4.87, 0
-10.63,2.80,-4.65, 0
-9.60,1.74,-3.69, 0
-8.02,0.83,-2.99, 0
-6.80,0.17,-2.62, 0
-6.94,-0.32,-2.68, 0
-8.54,0.42,-3.33, 0
-9.94,2.51,-4.10, 0
-10.48,3.81,-4.42, 0
-9.68,3.56,-4.22, 0
-8.94,2.31,-4.03, 0
-8.49,1.65,-3.89, 0
-7.88,1.66,-3.50, 0
-7.29,1.69,-2.91, 0
-6.91,1.12,-2.34, 0
-6.64,0.44,-2.23, 0
-6.91,-0.10,-2.81, 0
-7.59,0.04,-3.53, 0
-8.55,0.15,-4.32, 0
-8.25,0.38,-5.00, 0
-7.21,1.21,-4.87, 0
-8.97,1.12,-3.79, 0
-12.57,0.61,-5.19, 0
-17.48,-0.57,-10.06, 0
-13.74,1.48,-13.40, 0
-7.73,2.05,-1.39, 0
-5.00,3.58,2.61, 0
-6.81,3.45,0.34, 0
-7.81,0.37,-4.76, 0
-7.81,-3.95,-8.14, 0
-8.31,-5.58,-7.83, 0
-7.41,-2.38,-4.88, 0
-7.40,2.34,-3.44, 0
-8.14,6.00,-3.26, 0
-9.43,5.15,-4.93, 0
-10.45,3.01,-6.51, 0
-9.69,1.43,-6.86, 0
-8.11,0.04,-5.24, 0
-7.36,-0.89,-3.76, 0
-7.30,-0.84,-3.47, 0
-7.32,0.96,-4.33, 0
-8.21,2.61,-5.18, 0
-8.39,3.16,-5.72, 0
-9.64,2.69,-5.18, 0
-8.47,1.77,-4.38, 0
-8.01,0.78,-4.57, 0
-8.54,0.89,-4.77, 0
-8.51,0.98,-4.79, 0
-8.10,1.34,-5.47, 0
-7.69,1.85,-5.47, 0
-7.75,2.63,-4.85, 0
-8.37,2.79,-5.02, 0
-8.44,3.04,-5.38, 0
-8.52,2.89,-5.53, 0
-8.05,2.93,-4.92, 0
-7.38,3.09,-4.69, 0
-8.53,2.48,-4.45, 0
-8.63,3.03,1.03, 0
-8.15,3.82,0.19, 0
-10.29,1.49,-4.35, 0
-10.73,-0.91,-7.11, 0
-9.97,-2.58,-7.01, 0
-8.86,-2.35,-5.98, 0
-8.38,-1.07,-4.38, 0
-8.95,-0.53,-4.04, 0
-9.37,-0.87,-3.74, 0
-8.85,-1.13,-3.93, 0
-7.97,-0.95,-4.18, 0
-7.52,-0.14,-4.16, 0
-7.95,1.68,-3.77, 0
-8.68,4.07,-3.79, 0
-11.18,4.50,-4.21, 0
-11.15,4.31,-5.39, 0
-10.22,2.23,-5.70, 0
-7.93,0.39,-3.56, 0
-6.74,-0.40,-2.35, 0
-7.18,0.98,-2.25, 0
-8.14,2.78,-2.91, 0
-8.11,3.71,-3.17, 0
-7.64,3.18,-2.45, 0
-7.29,1.78,-1.92, 0
-7.68,0.50,-2.50, 0
-8.26,0.39,-3.67, 0
-8.35,1.00,-4.26, 0
-9.14,1.23,-4.23, 0
-10.39,1.55,-5.18, 0
-11.86,2.02,-6.61, 0
-11.27,2.48,-7.51, 0
-8.18,1.31,-4.38, 0
-7.17,1.63,-1.47, 0
-7.33,1.93,-2.33, 0
-8.38,1.47,-3.31, 0
-9.22,0.14,-4.71, 0
-8.75,-0.47,-5.05, 0
-8.55,-0.56,-4.68, 0
-8.43,0.87,-4.43, 0
-8.89,1.90,-4.39, 0
-9.02,2.17,-4.57, 0
-8.92,1.71,-5.17, 0
-8.90,0.79,-5.65, 0
-8.34,-0.08,-5.85, 0
-7.99,-0.34,-5.99, 0
-7.96,-0.23,-5.67, 0
-7.97,0.69,-5.20, 0
-8.20,1.43,-5.42, 0
-8.34,1.97,-5.82, 0
-8.56,1.35,-6.06, 0
-8.75,1.11,-6.00, 0
-8.21,0.58,-5.63, 0
-8.05,0.40,-5.32, 0
-8.05,0.62,-5.35, 0
-8.20,1.47,-5.70, 0
-8.69,1.93,-5.69, 0
-8.86,1.97,-5.44, 0
-8.56,1.78,-5.21, 0
-8.23,1.62,-5.29, 0
-8.45,2.05,-5.29, 0
-7.77,2.58,-4.63, 0
-9.67,1.25,-3.61, 0
-9.90,-0.16,-3.45, 0
-7.43,-0.70,-3.54, 0
-6.45,-0.84,-3.31, 0
-6.82,-0.84,-4.26, 0
-6.57,-0.86,-5.12, 0
-6.26,-0.53,-4.24, 0
-5.05,0.03,-2.57, 0
-3.43,1.72,-1.46, 0
-4.32,1.75,-0.73, 0
-5.83,0.99,-2.20, 0
-4.96,-0.75,-4.80, 0
-6.46,-2.26,-3.98, 0
-7.92,0.22,-2.01, 0
-9.80,4.02,-2.38, 0
-11.19,3.94,-3.52, 0
-11.94,1.12,-5.42, 0
-13.61,1.51,-6.69, 0
-16.23,3.46,-6.48, 0
-15.99,4.29,-5.67, 0
-15.80,2.75,-5.41, 0
-17.32,0.56,-7.71, 0
-17.59,0.67,-9.30, 0
-15.77,2.07,-6.63, 0
-14.15,2.88,-5.07, 0
-12.67,2.70,-5.00, 0
-10.61,2.11,-4.69, 0
-8.60,1.03,-4.03, 0
-6.39,-0.11,-3.28, 0
-4.34,-0.70,-2.54, 0
-3.41,-0.95,-1.70, 0
-1.98,-0.95,-1.14, 0
-0.96,-0.96,-0.44, 0
-1.43,-1.24,-0.06, 0
-2.21,-1.70,-1.14, 0
-4.40,-2.00,-2.71, 0
-6.30,-2.05,-3.44, 0
-7.80,-2.23,-4.35, 0
-8.99,-2.80,-4.99, 0
-13.53,-4.42,-4.25, 0
-16.54,-0.49,-6.60, 0
-10.69,2.06,-8.57, 0
-6.45,1.26,-7.10, 0
-5.70,0.29,-3.51, 0
-2.53,-1.32,-0.28, 0
-0.62,-1.49,-0.59, 0
-2.65,-0.07,-0.55, 0
-7.13,2.16,-2.37, 0
-10.53,1.21,-4.63, 0
-11.24,0.27,-5.57, 0
-8.38,-0.49,-5.48, 0
-7.79,-2.70,-3.29, 0
-7.70,-0.58,-3.09, 0
-11.49,3.86,-5.13, 0
-14.98,7.35,-7.26, 0
-15.06,6.00,-6.70, 0
-14.66,1.90,-5.50, 0
-16.07,-0.46,-7.27, 0
-16.76,-0.02,-8.59, 0
-16.00,1.08,-7.81, 0
-14.46,1.47,-7.15, 0
-12.68,1.88,-6.54, 0
-10.97,1.59,-5.82, 0
-8.70,0.84,-4.53, 0
-5.95,-0.00,-3.24, 0
-3.38,-0.48,-2.17, 0
-1.72,-0.81,-0.98, 0
-0.34,-0.98,-0.08, 0
0.46,-0.81,0.95, 0
-0.04,-0.77,0.94, 0
-2.69,-0.63,-0.21, 0
-11.64,0.06,-2.15, 0
-16.25,-2.00,-8.89, 0
-17.75,3.25,-10.28, 0
-12.20,4.27,-6.54, 0
-8.66,1.25,-5.53, 0
-6.70,-0.84,-3.15, 0
-5.54,-1.80,-1.81, 0
-5.37,-1.07,-2.73, 0
-6.27,-0.33,-3.43, 0
-5.89,-0.18,-3.20, 0
-5.44,-0.09,-3.63, 0
-2.85,1.03,-3.76, 0
-2.52,1.51,-2.32, 0
-3.23,2.34,0.05, 0
-9.15,3.04,-0.35, 0
-12.49,5.60,-3.91, 0
-12.01,1.32,-9.28, 0
-12.35,-2.29,-9.72, 0
-9.87,-1.68,-4.98, 0
-8.47,3.97,-0.67, 0
-14.57,7.70,-5.01, 0
-16.78,6.63,-10.95, 0
-15.80,2.72,-9.60, 0
-15.24,0.59,-7.46, 0
-14.20,1.57,-6.75, 0
-12.84,2.19,-6.22, 0
-11.29,2.04,-6.15, 0
-10.10,1.85,-5.92, 0
-8.55,1.49,-5.20, 0
-6.90,0.84,-4.31, 0
-4.48,0.40,-3.34, 0
-2.79,-0.30,-1.71, 0
-1.46,-1.12,0.03, 0
-0.49,-1.25,0.28, 0
-1.24,-1.08,-0.94, 0
-4.62,-1.20,-2.25, 0
-7.76,-1.96,-4.59, 0
-11.55,-0.41,-7.00, 0
-14.08,1.75,-5.53, 0
-13.40,2.80,-5.48, 0
-12.96,2.21,-7.21, 0
-9.76,0.69,-5.73, 0
-7.53,0.10,-3.20, 0
-6.18,0.29,-2.38, 0
-6.26,0.22,-3.28, 0
-6.91,0.02,-4.24, 0
-7.41,-0.45,-4.79, 0
-6.82,-1.00,-5.31, 0
-5.09,-1.10,-4.86, 0
-3.31,0.06,-3.31, 0
-2.65,0.68,-0.76, 0
-2.13,2.47,-0.20, 0
-5.33,7.31,-1.12, 0
-10.47,7.78,-1.88, 0
-11.28,1.65,-12.32, 0
-16.45,-1.07,-15.80, 0
-9.92,0.90,-6.94, 0
-7.53,0.12,1.73, 0
-12.37,2.51,-1.40, 0
-15.84,3.17,-7.97, 0
-16.48,2.71,-11.58, 0
-16.27,3.99,-10.51, 0
-13.86,4.27,-6.53, 0
-12.03,2.36,-4.96, 0
-10.46,0.41,-6.09, 0
-8.16,-0.02,-6.17, 0
-6.50,0.91,-4.50, 0
-5.41,1.26,-2.91, 0
-3.95,0.92,-2.33, 0
-2.70,0.55,-1.45, 0
-1.32,0.72,-0.42, 0
-1.26,-0.07,0.59, 0
-4.12,-1.06,-0.58, 0
-8.98,-3.22,-5.58, 0
-11.54,0.42,-6.11, 0
-11.49,3.30,-5.19, 0
-10.67,4.81,-5.13, 0
-12.09,1.54,-6.33, 0
-11.47,-0.97,-7.42, 0
-8.52,-0.64,-5.65, 0
-6.72,0.13,-3.35, 0
-5.87,1.01,-2.44, 0
-6.24,1.79,-2.83, 0
-7.79,2.21,-4.58, 0
-8.61,2.55,-5.82, 0
-9.12,3.03,-6.04, 0
-8.97,2.75,-5.87, 0
-8.40,1.93,-5.02, 0
-8.19,1.09,-4.47, 0
-8.27,0.70,-4.50, 0
-8.30,0.98,-4.89, 0
-8.58,1.02,-5.13, 0
-8.67,0.93,-4.90, 0
-8.51,1.05,-4.97, 0
-8.44,1.21,-5.13, 0
-8.62,1.06,-5.25, 0
-8.37,0.79,-5.48, 0
-7.75,0.83,-5.00, 0
-7.46,0.94,-4.35, 0
-7.05,1.06,-4.16, 0
-6.01,1.35,-4.06, 0
-5.04,1.43,-3.88, 0
