timestamp,Accel_X,Accel_Y,Accel_Z,Fall_Indicator,Event_ID,Window_Number
5100,-8.35,0.91,-5.87,1,1,1
5120,-8.6,1.27,-5.69,1,1,1
5140,-10.42,1.57,-4.88,1,1,1
5160,-8.31,1.96,-5.1,1,1,1
5180,-7.69,1.58,-3.57,1,1,1
5200,-7.51,1.2,-3.14,1,1,1
5220,-8.11,0.33,-4.79,1,1,1
5240,-9.16,0.35,-5.9,0,1,1
5260,-8.67,-0.55,-6.36,0,1,1
5280,-8.65,0.2,-5.58,0,1,1
5300,-6.47,0.49,-4.58,0,1,1
5320,-5.85,0.51,-4.05,0,1,1
5340,-7.39,0.8,-4.03,0,1,1
5360,-7.28,0.19,-4.56,0,1,1
5380,-6.37,0.08,-2.43,0,1,1
5400,-4.41,-0.71,-0.67,0,1,1
5420,-4.38,-1.36,-0.75,0,1,1
5440,-5.81,-1.75,-2.93,0,1,1
5460,-8.22,-1.88,-4.5,0,1,1
5480,-5.57,-1.86,-3.17,0,1,1
5500,-5.81,-1.59,-2.75,0,1,1
5520,-5.35,-2.36,-3.38,0,1,1
5540,-5.39,-2.15,-2.95,0,1,1
5560,-6.35,-2.88,-2.73,0,1,1
5580,-10.28,-2.85,-0.31,0,1,1
5600,-5.65,-1.24,-2.35,0,1,1
5620,-4.87,0.32,-1.94,0,1,1
5640,-5.69,0.72,-2.89,0,1,1
5660,-7.24,0.04,-2.61,0,1,1
5680,-8.3,-2.31,-1.12,0,1,1
5700,-9.56,-3.88,0.58,0,1,1
5720,-11.94,-4.25,-1.15,0,1,1
5740,-12.81,-5.21,-4.99,0,1,1
5760,-13.9,-6.12,-4.52,0,1,1
5780,-14.32,-5.24,-8.8,0,1,1
5800,-8.97,4.74,1.89,0,1,1
5820,-11.89,10.94,6.08,0,1,1
5840,-9.76,6.26,14.78,0,1,1
5860,-12.27,4.65,19.14,0,1,1
5880,-3.77,15.85,19.62,0,1,1
5900,-1.69,7.32,19.62,0,1,1
5920,-1.26,-0.11,19.62,0,1,1
5940,1.29,-1.04,19.62,0,1,1
5960,-0.13,-1.41,19.62,0,1,1
5980,2.0,-3.3,19.37,0,1,1
6000,0.45,-7.15,12.77,0,1,1
6020,2.15,-5.7,11.36,0,1,1
6040,3.38,-3.56,9.81,0,1,1
6060,2.12,-2.5,8.25,0,1,1
6080,-0.6,-3.0,6.64,0,1,1
6100,1.19,-2.17,3.84,0,1,1
6120,2.93,-0.33,4.23,0,1,1
6140,1.18,0.48,3.3,0,1,1
6160,0.8,-0.68,2.3,0,1,1
6180,1.31,-2.45,1.09,0,1,1
6200,2.99,-5.08,3.74,0,1,1
6220,-0.31,-1.97,2.98,0,1,1
6240,-0.76,0.86,6.09,0,1,1
6260,-0.81,0.38,6.65,0,1,1
6280,0.26,-1.89,7.71,0,1,1
6300,-1.51,-3.06,7.15,0,1,1
6320,-3.27,-0.57,8.54,0,1,1
6340,-4.58,0.71,10.16,0,1,1
6360,-4.95,0.38,11.88,0,1,1
6380,-6.77,2.09,12.17,0,1,1
6400,-7.76,2.92,11.36,0,1,1
6420,-9.36,3.3,10.85,0,1,1
6440,-10.68,4.97,12.26,0,1,1
6460,-10.57,5.45,10.98,0,1,1
6480,-13.14,5.88,8.98,0,1,1
6500,-12.28,5.36,7.48,0,1,1
6520,-8.91,1.1,7.61,0,1,1
6540,-9.79,0.19,6.88,0,1,1
6560,-9.71,-0.32,4.56,0,1,1
6580,-8.16,0.4,3.22,0,1,1
6600,-7.22,0.49,4.33,0,1,1
6620,-5.93,0.49,5.41,0,1,1
6640,-5.49,0.05,5.25,0,1,1
6660,-5.38,0.21,4.81,0,1,1
6680,-4.82,-0.68,4.19,0,1,1
6700,-3.97,-0.91,5.45,0,1,1
6720,-4.08,-0.41,5.58,0,1,1
6740,-5.34,-0.17,4.99,0,1,1
6760,-5.9,-0.6,5.34,0,1,1
6780,-5.79,-0.91,6.02,0,1,1
6800,-6.11,-1.38,6.65,0,1,1
6820,-5.27,-2.2,7.01,0,1,1
6840,-5.69,-2.85,8.37,0,1,1
6860,-5.39,-1.51,10.19,0,1,1
6880,-5.67,-1.15,9.82,0,1,1
6900,-6.27,-1.84,8.45,0,1,1
6920,-5.23,-1.51,9.27,0,1,1
6940,-5.63,-1.77,9.34,0,1,1
6960,-5.42,-0.74,7.94,0,1,1
6980,-5.5,-0.8,8.21,0,1,1
7000,-5.03,-1.52,8.43,0,1,1
7020,-4.89,-1.5,8.33,0,1,1
7040,-4.51,-0.96,7.75,0,1,1
7060,-4.35,-0.3,8.0,0,1,1
7080,-4.19,-0.05,8.71,0,1,1
5200,-7.51,1.2,-3.14,1,1,2
5220,-8.11,0.33,-4.79,1,1,2
5240,-9.16,0.35,-5.9,0,1,2
5260,-8.67,-0.55,-6.36,0,1,2
5280,-8.65,0.2,-5.58,0,1,2
5300,-6.47,0.49,-4.58,0,1,2
5320,-5.85,0.51,-4.05,0,1,2
5340,-7.39,0.8,-4.03,0,1,2
5360,-7.28,0.19,-4.56,0,1,2
5380,-6.37,0.08,-2.43,0,1,2
5400,-4.41,-0.71,-0.67,0,1,2
5420,-4.38,-1.36,-0.75,0,1,2
5440,-5.81,-1.75,-2.93,0,1,2
5460,-8.22,-1.88,-4.5,0,1,2
5480,-5.57,-1.86,-3.17,0,1,2
5500,-5.81,-1.59,-2.75,0,1,2
5520,-5.35,-2.36,-3.38,0,1,2
5540,-5.39,-2.15,-2.95,0,1,2
5560,-6.35,-2.88,-2.73,0,1,2
5580,-10.28,-2.85,-0.31,0,1,2
5600,-5.65,-1.24,-2.35,0,1,2
5620,-4.87,0.32,-1.94,0,1,2
5640,-5.69,0.72,-2.89,0,1,2
5660,-7.24,0.04,-2.61,0,1,2
5680,-8.3,-2.31,-1.12,0,1,2
5700,-9.56,-3.88,0.58,0,1,2
5720,-11.94,-4.25,-1.15,0,1,2
5740,-12.81,-5.21,-4.99,0,1,2
5760,-13.9,-6.12,-4.52,0,1,2
5780,-14.32,-5.24,-8.8,0,1,2
5800,-8.97,4.74,1.89,0,1,2
5820,-11.89,10.94,6.08,0,1,2
5840,-9.76,6.26,14.78,0,1,2
5860,-12.27,4.65,19.14,0,1,2
5880,-3.77,15.85,19.62,0,1,2
5900,-1.69,7.32,19.62,0,1,2
5920,-1.26,-0.11,19.62,0,1,2
5940,1.29,-1.04,19.62,0,1,2
5960,-0.13,-1.41,19.62,0,1,2
5980,2.0,-3.3,19.37,0,1,2
6000,0.45,-7.15,12.77,0,1,2
6020,2.15,-5.7,11.36,0,1,2
6040,3.38,-3.56,9.81,0,1,2
6060,2.12,-2.5,8.25,0,1,2
6080,-0.6,-3.0,6.64,0,1,2
6100,1.19,-2.17,3.84,0,1,2
6120,2.93,-0.33,4.23,0,1,2
6140,1.18,0.48,3.3,0,1,2
6160,0.8,-0.68,2.3,0,1,2
6180,1.31,-2.45,1.09,0,1,2
6200,2.99,-5.08,3.74,0,1,2
6220,-0.31,-1.97,2.98,0,1,2
6240,-0.76,0.86,6.09,0,1,2
6260,-0.81,0.38,6.65,0,1,2
6280,0.26,-1.89,7.71,0,1,2
6300,-1.51,-3.06,7.15,0,1,2
6320,-3.27,-0.57,8.54,0,1,2
6340,-4.58,0.71,10.16,0,1,2
6360,-4.95,0.38,11.88,0,1,2
6380,-6.77,2.09,12.17,0,1,2
6400,-7.76,2.92,11.36,0,1,2
6420,-9.36,3.3,10.85,0,1,2
6440,-10.68,4.97,12.26,0,1,2
6460,-10.57,5.45,10.98,0,1,2
6480,-13.14,5.88,8.98,0,1,2
6500,-12.28,5.36,7.48,0,1,2
6520,-8.91,1.1,7.61,0,1,2
6540,-9.79,0.19,6.88,0,1,2
6560,-9.71,-0.32,4.56,0,1,2
6580,-8.16,0.4,3.22,0,1,2
6600,-7.22,0.49,4.33,0,1,2
6620,-5.93,0.49,5.41,0,1,2
6640,-5.49,0.05,5.25,0,1,2
6660,-5.38,0.21,4.81,0,1,2
6680,-4.82,-0.68,4.19,0,1,2
6700,-3.97,-0.91,5.45,0,1,2
6720,-4.08,-0.41,5.58,0,1,2
6740,-5.34,-0.17,4.99,0,1,2
6760,-5.9,-0.6,5.34,0,1,2
6780,-5.79,-0.91,6.02,0,1,2
6800,-6.11,-1.38,6.65,0,1,2
6820,-5.27,-2.2,7.01,0,1,2
6840,-5.69,-2.85,8.37,0,1,2
6860,-5.39,-1.51,10.19,0,1,2
6880,-5.67,-1.15,9.82,0,1,2
6900,-6.27,-1.84,8.45,0,1,2
6920,-5.23,-1.51,9.27,0,1,2
6940,-5.63,-1.77,9.34,0,1,2
6960,-5.42,-0.74,7.94,0,1,2
6980,-5.5,-0.8,8.21,0,1,2
7000,-5.03,-1.52,8.43,0,1,2
7020,-4.89,-1.5,8.33,0,1,2
7040,-4.51,-0.96,7.75,0,1,2
7060,-4.35,-0.3,8.0,0,1,2
7080,-4.19,-0.05,8.71,0,1,2
7100,-5.33,-0.02,6.34,0,1,2
7120,-5.55,-0.23,4.92,0,1,2
7140,-4.91,-0.81,5.88,0,1,2
7160,-4.67,-0.62,7.09,0,1,2
7180,-6.06,0.08,9.35,0,1,2
5300,-6.47,0.49,-4.58,0,1,3
5320,-5.85,0.51,-4.05,0,1,3
5340,-7.39,0.8,-4.03,0,1,3
5360,-7.28,0.19,-4.56,0,1,3
5380,-6.37,0.08,-2.43,0,1,3
5400,-4.41,-0.71,-0.67,0,1,3
5420,-4.38,-1.36,-0.75,0,1,3
5440,-5.81,-1.75,-2.93,0,1,3
5460,-8.22,-1.88,-4.5,0,1,3
5480,-5.57,-1.86,-3.17,0,1,3
5500,-5.81,-1.59,-2.75,0,1,3
5520,-5.35,-2.36,-3.38,0,1,3
5540,-5.39,-2.15,-2.95,0,1,3
5560,-6.35,-2.88,-2.73,0,1,3
5580,-10.28,-2.85,-0.31,0,1,3
5600,-5.65,-1.24,-2.35,0,1,3
5620,-4.87,0.32,-1.94,0,1,3
5640,-5.69,0.72,-2.89,0,1,3
5660,-7.24,0.04,-2.61,0,1,3
5680,-8.3,-2.31,-1.12,0,1,3
5700,-9.56,-3.88,0.58,0,1,3
5720,-11.94,-4.25,-1.15,0,1,3
5740,-12.81,-5.21,-4.99,0,1,3
5760,-13.9,-6.12,-4.52,0,1,3
5780,-14.32,-5.24,-8.8,0,1,3
5800,-8.97,4.74,1.89,0,1,3
5820,-11.89,10.94,6.08,0,1,3
5840,-9.76,6.26,14.78,0,1,3
5860,-12.27,4.65,19.14,0,1,3
5880,-3.77,15.85,19.62,0,1,3
5900,-1.69,7.32,19.62,0,1,3
5920,-1.26,-0.11,19.62,0,1,3
5940,1.29,-1.04,19.62,0,1,3
5960,-0.13,-1.41,19.62,0,1,3
5980,2.0,-3.3,19.37,0,1,3
6000,0.45,-7.15,12.77,0,1,3
6020,2.15,-5.7,11.36,0,1,3
6040,3.38,-3.56,9.81,0,1,3
6060,2.12,-2.5,8.25,0,1,3
6080,-0.6,-3.0,6.64,0,1,3
6100,1.19,-2.17,3.84,0,1,3
6120,2.93,-0.33,4.23,0,1,3
6140,1.18,0.48,3.3,0,1,3
6160,0.8,-0.68,2.3,0,1,3
6180,1.31,-2.45,1.09,0,1,3
6200,2.99,-5.08,3.74,0,1,3
6220,-0.31,-1.97,2.98,0,1,3
6240,-0.76,0.86,6.09,0,1,3
6260,-0.81,0.38,6.65,0,1,3
6280,0.26,-1.89,7.71,0,1,3
6300,-1.51,-3.06,7.15,0,1,3
6320,-3.27,-0.57,8.54,0,1,3
6340,-4.58,0.71,10.16,0,1,3
6360,-4.95,0.38,11.88,0,1,3
6380,-6.77,2.09,12.17,0,1,3
6400,-7.76,2.92,11.36,0,1,3
6420,-9.36,3.3,10.85,0,1,3
6440,-10.68,4.97,12.26,0,1,3
6460,-10.57,5.45,10.98,0,1,3
6480,-13.14,5.88,8.98,0,1,3
6500,-12.28,5.36,7.48,0,1,3
6520,-8.91,1.1,7.61,0,1,3
6540,-9.79,0.19,6.88,0,1,3
6560,-9.71,-0.32,4.56,0,1,3
6580,-8.16,0.4,3.22,0,1,3
6600,-7.22,0.49,4.33,0,1,3
6620,-5.93,0.49,5.41,0,1,3
6640,-5.49,0.05,5.25,0,1,3
6660,-5.38,0.21,4.81,0,1,3
6680,-4.82,-0.68,4.19,0,1,3
6700,-3.97,-0.91,5.45,0,1,3
6720,-4.08,-0.41,5.58,0,1,3
6740,-5.34,-0.17,4.99,0,1,3
6760,-5.9,-0.6,5.34,0,1,3
6780,-5.79,-0.91,6.02,0,1,3
6800,-6.11,-1.38,6.65,0,1,3
6820,-5.27,-2.2,7.01,0,1,3
6840,-5.69,-2.85,8.37,0,1,3
6860,-5.39,-1.51,10.19,0,1,3
6880,-5.67,-1.15,9.82,0,1,3
6900,-6.27,-1.84,8.45,0,1,3
6920,-5.23,-1.51,9.27,0,1,3
6940,-5.63,-1.77,9.34,0,1,3
6960,-5.42,-0.74,7.94,0,1,3
6980,-5.5,-0.8,8.21,0,1,3
7000,-5.03,-1.52,8.43,0,1,3
7020,-4.89,-1.5,8.33,0,1,3
7040,-4.51,-0.96,7.75,0,1,3
7060,-4.35,-0.3,8.0,0,1,3
7080,-4.19,-0.05,8.71,0,1,3
7100,-5.33,-0.02,6.34,0,1,3
7120,-5.55,-0.23,4.92,0,1,3
7140,-4.91,-0.81,5.88,0,1,3
7160,-4.67,-0.62,7.09,0,1,3
7180,-6.06,0.08,9.35,0,1,3
7200,-4.81,-0.36,7.35,0,1,3
7220,-5.63,0.05,7.97,0,1,3
7240,-5.77,-0.08,7.02,0,1,3
7260,-5.73,-0.03,6.92,0,1,3
7280,-5.81,-0.12,7.7,0,1,3
5400,-4.41,-0.71,-0.67,0,1,4
5420,-4.38,-1.36,-0.75,0,1,4
5440,-5.81,-1.75,-2.93,0,1,4
5460,-8.22,-1.88,-4.5,0,1,4
5480,-5.57,-1.86,-3.17,0,1,4
5500,-5.81,-1.59,-2.75,0,1,4
5520,-5.35,-2.36,-3.38,0,1,4
5540,-5.39,-2.15,-2.95,0,1,4
5560,-6.35,-2.88,-2.73,0,1,4
5580,-10.28,-2.85,-0.31,0,1,4
5600,-5.65,-1.24,-2.35,0,1,4
5620,-4.87,0.32,-1.94,0,1,4
5640,-5.69,0.72,-2.89,0,1,4
5660,-7.24,0.04,-2.61,0,1,4
5680,-8.3,-2.31,-1.12,0,1,4
5700,-9.56,-3.88,0.58,0,1,4
5720,-11.94,-4.25,-1.15,0,1,4
5740,-12.81,-5.21,-4.99,0,1,4
5760,-13.9,-6.12,-4.52,0,1,4
5780,-14.32,-5.24,-8.8,0,1,4
5800,-8.97,4.74,1.89,0,1,4
5820,-11.89,10.94,6.08,0,1,4
5840,-9.76,6.26,14.78,0,1,4
5860,-12.27,4.65,19.14,0,1,4
5880,-3.77,15.85,19.62,0,1,4
5900,-1.69,7.32,19.62,0,1,4
5920,-1.26,-0.11,19.62,0,1,4
5940,1.29,-1.04,19.62,0,1,4
5960,-0.13,-1.41,19.62,0,1,4
5980,2.0,-3.3,19.37,0,1,4
6000,0.45,-7.15,12.77,0,1,4
6020,2.15,-5.7,11.36,0,1,4
6040,3.38,-3.56,9.81,0,1,4
6060,2.12,-2.5,8.25,0,1,4
6080,-0.6,-3.0,6.64,0,1,4
6100,1.19,-2.17,3.84,0,1,4
6120,2.93,-0.33,4.23,0,1,4
6140,1.18,0.48,3.3,0,1,4
6160,0.8,-0.68,2.3,0,1,4
6180,1.31,-2.45,1.09,0,1,4
6200,2.99,-5.08,3.74,0,1,4
6220,-0.31,-1.97,2.98,0,1,4
6240,-0.76,0.86,6.09,0,1,4
6260,-0.81,0.38,6.65,0,1,4
6280,0.26,-1.89,7.71,0,1,4
6300,-1.51,-3.06,7.15,0,1,4
6320,-3.27,-0.57,8.54,0,1,4
6340,-4.58,0.71,10.16,0,1,4
6360,-4.95,0.38,11.88,0,1,4
6380,-6.77,2.09,12.17,0,1,4
6400,-7.76,2.92,11.36,0,1,4
6420,-9.36,3.3,10.85,0,1,4
6440,-10.68,4.97,12.26,0,1,4
6460,-10.57,5.45,10.98,0,1,4
6480,-13.14,5.88,8.98,0,1,4
6500,-12.28,5.36,7.48,0,1,4
6520,-8.91,1.1,7.61,0,1,4
6540,-9.79,0.19,6.88,0,1,4
6560,-9.71,-0.32,4.56,0,1,4
6580,-8.16,0.4,3.22,0,1,4
6600,-7.22,0.49,4.33,0,1,4
6620,-5.93,0.49,5.41,0,1,4
6640,-5.49,0.05,5.25,0,1,4
6660,-5.38,0.21,4.81,0,1,4
6680,-4.82,-0.68,4.19,0,1,4
6700,-3.97,-0.91,5.45,0,1,4
6720,-4.08,-0.41,5.58,0,1,4
6740,-5.34,-0.17,4.99,0,1,4
6760,-5.9,-0.6,5.34,0,1,4
6780,-5.79,-0.91,6.02,0,1,4
6800,-6.11,-1.38,6.65,0,1,4
6820,-5.27,-2.2,7.01,0,1,4
6840,-5.69,-2.85,8.37,0,1,4
6860,-5.39,-1.51,10.19,0,1,4
6880,-5.67,-1.15,9.82,0,1,4
6900,-6.27,-1.84,8.45,0,1,4
6920,-5.23,-1.51,9.27,0,1,4
6940,-5.63,-1.77,9.34,0,1,4
6960,-5.42,-0.74,7.94,0,1,4
6980,-5.5,-0.8,8.21,0,1,4
7000,-5.03,-1.52,8.43,0,1,4
7020,-4.89,-1.5,8.33,0,1,4
7040,-4.51,-0.96,7.75,0,1,4
7060,-4.35,-0.3,8.0,0,1,4
7080,-4.19,-0.05,8.71,0,1,4
7100,-5.33,-0.02,6.34,0,1,4
7120,-5.55,-0.23,4.92,0,1,4
7140,-4.91,-0.81,5.88,0,1,4
7160,-4.67,-0.62,7.09,0,1,4
7180,-6.06,0.08,9.35,0,1,4
7200,-4.81,-0.36,7.35,0,1,4
7220,-5.63,0.05,7.97,0,1,4
7240,-5.77,-0.08,7.02,0,1,4
7260,-5.73,-0.03,6.92,0,1,4
7280,-5.81,-0.12,7.7,0,1,4
7300,-5.53,0.27,7.4,0,1,4
7320,-5.66,0.74,7.81,0,1,4
7340,-5.8,1.5,8.61,0,1,4
7360,-6.24,0.94,7.85,0,1,4
7380,-6.14,0.41,6.71,0,1,4
5500,-5.81,-1.59,-2.75,0,1,5
5520,-5.35,-2.36,-3.38,0,1,5
5540,-5.39,-2.15,-2.95,0,1,5
5560,-6.35,-2.88,-2.73,0,1,5
5580,-10.28,-2.85,-0.31,0,1,5
5600,-5.65,-1.24,-2.35,0,1,5
5620,-4.87,0.32,-1.94,0,1,5
5640,-5.69,0.72,-2.89,0,1,5
5660,-7.24,0.04,-2.61,0,1,5
5680,-8.3,-2.31,-1.12,0,1,5
5700,-9.56,-3.88,0.58,0,1,5
5720,-11.94,-4.25,-1.15,0,1,5
5740,-12.81,-5.21,-4.99,0,1,5
5760,-13.9,-6.12,-4.52,0,1,5
5780,-14.32,-5.24,-8.8,0,1,5
5800,-8.97,4.74,1.89,0,1,5
5820,-11.89,10.94,6.08,0,1,5
5840,-9.76,6.26,14.78,0,1,5
5860,-12.27,4.65,19.14,0,1,5
5880,-3.77,15.85,19.62,0,1,5
5900,-1.69,7.32,19.62,0,1,5
5920,-1.26,-0.11,19.62,0,1,5
5940,1.29,-1.04,19.62,0,1,5
5960,-0.13,-1.41,19.62,0,1,5
5980,2.0,-3.3,19.37,0,1,5
6000,0.45,-7.15,12.77,0,1,5
6020,2.15,-5.7,11.36,0,1,5
6040,3.38,-3.56,9.81,0,1,5
6060,2.12,-2.5,8.25,0,1,5
6080,-0.6,-3.0,6.64,0,1,5
6100,1.19,-2.17,3.84,0,1,5
6120,2.93,-0.33,4.23,0,1,5
6140,1.18,0.48,3.3,0,1,5
6160,0.8,-0.68,2.3,0,1,5
6180,1.31,-2.45,1.09,0,1,5
6200,2.99,-5.08,3.74,0,1,5
6220,-0.31,-1.97,2.98,0,1,5
6240,-0.76,0.86,6.09,0,1,5
6260,-0.81,0.38,6.65,0,1,5
6280,0.26,-1.89,7.71,0,1,5
6300,-1.51,-3.06,7.15,0,1,5
6320,-3.27,-0.57,8.54,0,1,5
6340,-4.58,0.71,10.16,0,1,5
6360,-4.95,0.38,11.88,0,1,5
6380,-6.77,2.09,12.17,0,1,5
6400,-7.76,2.92,11.36,0,1,5
6420,-9.36,3.3,10.85,0,1,5
6440,-10.68,4.97,12.26,0,1,5
6460,-10.57,5.45,10.98,0,1,5
6480,-13.14,5.88,8.98,0,1,5
6500,-12.28,5.36,7.48,0,1,5
6520,-8.91,1.1,7.61,0,1,5
6540,-9.79,0.19,6.88,0,1,5
6560,-9.71,-0.32,4.56,0,1,5
6580,-8.16,0.4,3.22,0,1,5
6600,-7.22,0.49,4.33,0,1,5
6620,-5.93,0.49,5.41,0,1,5
6640,-5.49,0.05,5.25,0,1,5
6660,-5.38,0.21,4.81,0,1,5
6680,-4.82,-0.68,4.19,0,1,5
6700,-3.97,-0.91,5.45,0,1,5
6720,-4.08,-0.41,5.58,0,1,5
6740,-5.34,-0.17,4.99,0,1,5
6760,-5.9,-0.6,5.34,0,1,5
6780,-5.79,-0.91,6.02,0,1,5
6800,-6.11,-1.38,6.65,0,1,5
6820,-5.27,-2.2,7.01,0,1,5
6840,-5.69,-2.85,8.37,0,1,5
6860,-5.39,-1.51,10.19,0,1,5
6880,-5.67,-1.15,9.82,0,1,5
6900,-6.27,-1.84,8.45,0,1,5
6920,-5.23,-1.51,9.27,0,1,5
6940,-5.63,-1.77,9.34,0,1,5
6960,-5.42,-0.74,7.94,0,1,5
6980,-5.5,-0.8,8.21,0,1,5
7000,-5.03,-1.52,8.43,0,1,5
7020,-4.89,-1.5,8.33,0,1,5
7040,-4.51,-0.96,7.75,0,1,5
7060,-4.35,-0.3,8.0,0,1,5
7080,-4.19,-0.05,8.71,0,1,5
7100,-5.33,-0.02,6.34,0,1,5
7120,-5.55,-0.23,4.92,0,1,5
7140,-4.91,-0.81,5.88,0,1,5
7160,-4.67,-0.62,7.09,0,1,5
7180,-6.06,0.08,9.35,0,1,5
7200,-4.81,-0.36,7.35,0,1,5
7220,-5.63,0.05,7.97,0,1,5
7240,-5.77,-0.08,7.02,0,1,5
7260,-5.73,-0.03,6.92,0,1,5
7280,-5.81,-0.12,7.7,0,1,5
7300,-5.53,0.27,7.4,0,1,5
7320,-5.66,0.74,7.81,0,1,5
7340,-5.8,1.5,8.61,0,1,5
7360,-6.24,0.94,7.85,0,1,5
7380,-6.14,0.41,6.71,0,1,5
7400,-5.48,1.57,7.51,0,1,5
7420,-5.03,2.62,8.26,0,1,5
7440,-5.73,2.6,7.56,0,1,5
7460,-5.39,2.56,6.21,0,1,5
7480,-5.58,3.93,7.26,0,1,5
5600,-5.65,-1.24,-2.35,0,1,6
5620,-4.87,0.32,-1.94,0,1,6
5640,-5.69,0.72,-2.89,0,1,6
5660,-7.24,0.04,-2.61,0,1,6
5680,-8.3,-2.31,-1.12,0,1,6
5700,-9.56,-3.88,0.58,0,1,6
5720,-11.94,-4.25,-1.15,0,1,6
5740,-12.81,-5.21,-4.99,0,1,6
5760,-13.9,-6.12,-4.52,0,1,6
5780,-14.32,-5.24,-8.8,0,1,6
5800,-8.97,4.74,1.89,0,1,6
5820,-11.89,10.94,6.08,0,1,6
5840,-9.76,6.26,14.78,0,1,6
5860,-12.27,4.65,19.14,0,1,6
5880,-3.77,15.85,19.62,0,1,6
5900,-1.69,7.32,19.62,0,1,6
5920,-1.26,-0.11,19.62,0,1,6
5940,1.29,-1.04,19.62,0,1,6
5960,-0.13,-1.41,19.62,0,1,6
5980,2.0,-3.3,19.37,0,1,6
6000,0.45,-7.15,12.77,0,1,6
6020,2.15,-5.7,11.36,0,1,6
6040,3.38,-3.56,9.81,0,1,6
6060,2.12,-2.5,8.25,0,1,6
6080,-0.6,-3.0,6.64,0,1,6
6100,1.19,-2.17,3.84,0,1,6
6120,2.93,-0.33,4.23,0,1,6
6140,1.18,0.48,3.3,0,1,6
6160,0.8,-0.68,2.3,0,1,6
6180,1.31,-2.45,1.09,0,1,6
6200,2.99,-5.08,3.74,0,1,6
6220,-0.31,-1.97,2.98,0,1,6
6240,-0.76,0.86,6.09,0,1,6
6260,-0.81,0.38,6.65,0,1,6
6280,0.26,-1.89,7.71,0,1,6
6300,-1.51,-3.06,7.15,0,1,6
6320,-3.27,-0.57,8.54,0,1,6
6340,-4.58,0.71,10.16,0,1,6
6360,-4.95,0.38,11.88,0,1,6
6380,-6.77,2.09,12.17,0,1,6
6400,-7.76,2.92,11.36,0,1,6
6420,-9.36,3.3,10.85,0,1,6
6440,-10.68,4.97,12.26,0,1,6
6460,-10.57,5.45,10.98,0,1,6
6480,-13.14,5.88,8.98,0,1,6
6500,-12.28,5.36,7.48,0,1,6
6520,-8.91,1.1,7.61,0,1,6
6540,-9.79,0.19,6.88,0,1,6
6560,-9.71,-0.32,4.56,0,1,6
6580,-8.16,0.4,3.22,0,1,6
6600,-7.22,0.49,4.33,0,1,6
6620,-5.93,0.49,5.41,0,1,6
6640,-5.49,0.05,5.25,0,1,6
6660,-5.38,0.21,4.81,0,1,6
6680,-4.82,-0.68,4.19,0,1,6
6700,-3.97,-0.91,5.45,0,1,6
6720,-4.08,-0.41,5.58,0,1,6
6740,-5.34,-0.17,4.99,0,1,6
6760,-5.9,-0.6,5.34,0,1,6
6780,-5.79,-0.91,6.02,0,1,6
6800,-6.11,-1.38,6.65,0,1,6
6820,-5.27,-2.2,7.01,0,1,6
6840,-5.69,-2.85,8.37,0,1,6
6860,-5.39,-1.51,10.19,0,1,6
6880,-5.67,-1.15,9.82,0,1,6
6900,-6.27,-1.84,8.45,0,1,6
6920,-5.23,-1.51,9.27,0,1,6
6940,-5.63,-1.77,9.34,0,1,6
6960,-5.42,-0.74,7.94,0,1,6
6980,-5.5,-0.8,8.21,0,1,6
7000,-5.03,-1.52,8.43,0,1,6
7020,-4.89,-1.5,8.33,0,1,6
7040,-4.51,-0.96,7.75,0,1,6
7060,-4.35,-0.3,8.0,0,1,6
7080,-4.19,-0.05,8.71,0,1,6
7100,-5.33,-0.02,6.34,0,1,6
7120,-5.55,-0.23,4.92,0,1,6
7140,-4.91,-0.81,5.88,0,1,6
7160,-4.67,-0.62,7.09,0,1,6
7180,-6.06,0.08,9.35,0,1,6
7200,-4.81,-0.36,7.35,0,1,6
7220,-5.63,0.05,7.97,0,1,6
7240,-5.77,-0.08,7.02,0,1,6
7260,-5.73,-0.03,6.92,0,1,6
7280,-5.81,-0.12,7.7,0,1,6
7300,-5.53,0.27,7.4,0,1,6
7320,-5.66,0.74,7.81,0,1,6
7340,-5.8,1.5,8.61,0,1,6
7360,-6.24,0.94,7.85,0,1,6
7380,-6.14,0.41,6.71,0,1,6
7400,-5.48,1.57,7.51,0,1,6
7420,-5.03,2.62,8.26,0,1,6
7440,-5.73,2.6,7.56,0,1,6
7460,-5.39,2.56,6.21,0,1,6
7480,-5.58,3.93,7.26,0,1,6
7500,-4.95,4.32,8.07,0,1,6
7520,-5.43,3.62,6.89,0,1,6
7540,-4.55,3.5,6.67,0,1,6
7560,-6.27,4.35,6.83,0,1,6
7580,-4.85,5.16,7.02,0,1,6
5700,-9.56,-3.88,0.58,0,1,7
5720,-11.94,-4.25,-1.15,0,1,7
5740,-12.81,-5.21,-4.99,0,1,7
5760,-13.9,-6.12,-4.52,0,1,7
5780,-14.32,-5.24,-8.8,0,1,7
5800,-8.97,4.74,1.89,0,1,7
5820,-11.89,10.94,6.08,0,1,7
5840,-9.76,6.26,14.78,0,1,7
5860,-12.27,4.65,19.14,0,1,7
5880,-3.77,15.85,19.62,0,1,7
5900,-1.69,7.32,19.62,0,1,7
5920,-1.26,-0.11,19.62,0,1,7
5940,1.29,-1.04,19.62,0,1,7
5960,-0.13,-1.41,19.62,0,1,7
5980,2.0,-3.3,19.37,0,1,7
6000,0.45,-7.15,12.77,0,1,7
6020,2.15,-5.7,11.36,0,1,7
6040,3.38,-3.56,9.81,0,1,7
6060,2.12,-2.5,8.25,0,1,7
6080,-0.6,-3.0,6.64,0,1,7
6100,1.19,-2.17,3.84,0,1,7
6120,2.93,-0.33,4.23,0,1,7
6140,1.18,0.48,3.3,0,1,7
6160,0.8,-0.68,2.3,0,1,7
6180,1.31,-2.45,1.09,0,1,7
6200,2.99,-5.08,3.74,0,1,7
6220,-0.31,-1.97,2.98,0,1,7
6240,-0.76,0.86,6.09,0,1,7
6260,-0.81,0.38,6.65,0,1,7
6280,0.26,-1.89,7.71,0,1,7
6300,-1.51,-3.06,7.15,0,1,7
6320,-3.27,-0.57,8.54,0,1,7
6340,-4.58,0.71,10.16,0,1,7
6360,-4.95,0.38,11.88,0,1,7
6380,-6.77,2.09,12.17,0,1,7
6400,-7.76,2.92,11.36,0,1,7
6420,-9.36,3.3,10.85,0,1,7
6440,-10.68,4.97,12.26,0,1,7
6460,-10.57,5.45,10.98,0,1,7
6480,-13.14,5.88,8.98,0,1,7
6500,-12.28,5.36,7.48,0,1,7
6520,-8.91,1.1,7.61,0,1,7
6540,-9.79,0.19,6.88,0,1,7
6560,-9.71,-0.32,4.56,0,1,7
6580,-8.16,0.4,3.22,0,1,7
6600,-7.22,0.49,4.33,0,1,7
6620,-5.93,0.49,5.41,0,1,7
6640,-5.49,0.05,5.25,0,1,7
6660,-5.38,0.21,4.81,0,1,7
6680,-4.82,-0.68,4.19,0,1,7
6700,-3.97,-0.91,5.45,0,1,7
6720,-4.08,-0.41,5.58,0,1,7
6740,-5.34,-0.17,4.99,0,1,7
6760,-5.9,-0.6,5.34,0,1,7
6780,-5.79,-0.91,6.02,0,1,7
6800,-6.11,-1.38,6.65,0,1,7
6820,-5.27,-2.2,7.01,0,1,7
6840,-5.69,-2.85,8.37,0,1,7
6860,-5.39,-1.51,10.19,0,1,7
6880,-5.67,-1.15,9.82,0,1,7
6900,-6.27,-1.84,8.45,0,1,7
6920,-5.23,-1.51,9.27,0,1,7
6940,-5.63,-1.77,9.34,0,1,7
6960,-5.42,-0.74,7.94,0,1,7
6980,-5.5,-0.8,8.21,0,1,7
7000,-5.03,-1.52,8.43,0,1,7
7020,-4.89,-1.5,8.33,0,1,7
7040,-4.51,-0.96,7.75,0,1,7
7060,-4.35,-0.3,8.0,0,1,7
7080,-4.19,-0.05,8.71,0,1,7
7100,-5.33,-0.02,6.34,0,1,7
7120,-5.55,-0.23,4.92,0,1,7
7140,-4.91,-0.81,5.88,0,1,7
7160,-4.67,-0.62,7.09,0,1,7
7180,-6.06,0.08,9.35,0,1,7
7200,-4.81,-0.36,7.35,0,1,7
7220,-5.63,0.05,7.97,0,1,7
7240,-5.77,-0.08,7.02,0,1,7
7260,-5.73,-0.03,6.92,0,1,7
7280,-5.81,-0.12,7.7,0,1,7
7300,-5.53,0.27,7.4,0,1,7
7320,-5.66,0.74,7.81,0,1,7
7340,-5.8,1.5,8.61,0,1,7
7360,-6.24,0.94,7.85,0,1,7
7380,-6.14,0.41,6.71,0,1,7
7400,-5.48,1.57,7.51,0,1,7
7420,-5.03,2.62,8.26,0,1,7
7440,-5.73,2.6,7.56,0,1,7
7460,-5.39,2.56,6.21,0,1,7
7480,-5.58,3.93,7.26,0,1,7
7500,-4.95,4.32,8.07,0,1,7
7520,-5.43,3.62,6.89,0,1,7
7540,-4.55,3.5,6.67,0,1,7
7560,-6.27,4.35,6.83,0,1,7
7580,-4.85,5.16,7.02,0,1,7
7600,-5.03,5.14,6.76,0,1,7
7620,-5.58,5.46,6.42,0,1,7
7640,-5.65,5.49,6.24,0,1,7
7660,-5.51,4.79,5.65,0,1,7
7680,-5.55,4.39,5.7,0,1,7
5800,-8.97,4.74,1.89,0,1,8
5820,-11.89,10.94,6.08,0,1,8
5840,-9.76,6.26,14.78,0,1,8
5860,-12.27,4.65,19.14,0,1,8
5880,-3.77,15.85,19.62,0,1,8
5900,-1.69,7.32,19.62,0,1,8
5920,-1.26,-0.11,19.62,0,1,8
5940,1.29,-1.04,19.62,0,1,8
5960,-0.13,-1.41,19.62,0,1,8
5980,2.0,-3.3,19.37,0,1,8
6000,0.45,-7.15,12.77,0,1,8
6020,2.15,-5.7,11.36,0,1,8
6040,3.38,-3.56,9.81,0,1,8
6060,2.12,-2.5,8.25,0,1,8
6080,-0.6,-3.0,6.64,0,1,8
6100,1.19,-2.17,3.84,0,1,8
6120,2.93,-0.33,4.23,0,1,8
6140,1.18,0.48,3.3,0,1,8
6160,0.8,-0.68,2.3,0,1,8
6180,1.31,-2.45,1.09,0,1,8
6200,2.99,-5.08,3.74,0,1,8
6220,-0.31,-1.97,2.98,0,1,8
6240,-0.76,0.86,6.09,0,1,8
6260,-0.81,0.38,6.65,0,1,8
6280,0.26,-1.89,7.71,0,1,8
6300,-1.51,-3.06,7.15,0,1,8
6320,-3.27,-0.57,8.54,0,1,8
6340,-4.58,0.71,10.16,0,1,8
6360,-4.95,0.38,11.88,0,1,8
6380,-6.77,2.09,12.17,0,1,8
6400,-7.76,2.92,11.36,0,1,8
6420,-9.36,3.3,10.85,0,1,8
6440,-10.68,4.97,12.26,0,1,8
6460,-10.57,5.45,10.98,0,1,8
6480,-13.14,5.88,8.98,0,1,8
6500,-12.28,5.36,7.48,0,1,8
6520,-8.91,1.1,7.61,0,1,8
6540,-9.79,0.19,6.88,0,1,8
6560,-9.71,-0.32,4.56,0,1,8
6580,-8.16,0.4,3.22,0,1,8
6600,-7.22,0.49,4.33,0,1,8
6620,-5.93,0.49,5.41,0,1,8
6640,-5.49,0.05,5.25,0,1,8
6660,-5.38,0.21,4.81,0,1,8
6680,-4.82,-0.68,4.19,0,1,8
6700,-3.97,-0.91,5.45,0,1,8
6720,-4.08,-0.41,5.58,0,1,8
6740,-5.34,-0.17,4.99,0,1,8
6760,-5.9,-0.6,5.34,0,1,8
6780,-5.79,-0.91,6.02,0,1,8
6800,-6.11,-1.38,6.65,0,1,8
6820,-5.27,-2.2,7.01,0,1,8
6840,-5.69,-2.85,8.37,0,1,8
6860,-5.39,-1.51,10.19,0,1,8
6880,-5.67,-1.15,9.82,0,1,8
6900,-6.27,-1.84,8.45,0,1,8
6920,-5.23,-1.51,9.27,0,1,8
6940,-5.63,-1.77,9.34,0,1,8
6960,-5.42,-0.74,7.94,0,1,8
6980,-5.5,-0.8,8.21,0,1,8
7000,-5.03,-1.52,8.43,0,1,8
7020,-4.89,-1.5,8.33,0,1,8
7040,-4.51,-0.96,7.75,0,1,8
7060,-4.35,-0.3,8.0,0,1,8
7080,-4.19,-0.05,8.71,0,1,8
7100,-5.33,-0.02,6.34,0,1,8
7120,-5.55,-0.23,4.92,0,1,8
7140,-4.91,-0.81,5.88,0,1,8
7160,-4.67,-0.62,7.09,0,1,8
7180,-6.06,0.08,9.35,0,1,8
7200,-4.81,-0.36,7.35,0,1,8
7220,-5.63,0.05,7.97,0,1,8
7240,-5.77,-0.08,7.02,0,1,8
7260,-5.73,-0.03,6.92,0,1,8
7280,-5.81,-0.12,7.7,0,1,8
7300,-5.53,0.27,7.4,0,1,8
7320,-5.66,0.74,7.81,0,1,8
7340,-5.8,1.5,8.61,0,1,8
7360,-6.24,0.94,7.85,0,1,8
7380,-6.14,0.41,6.71,0,1,8
7400,-5.48,1.57,7.51,0,1,8
7420,-5.03,2.62,8.26,0,1,8
7440,-5.73,2.6,7.56,0,1,8
7460,-5.39,2.56,6.21,0,1,8
7480,-5.58,3.93,7.26,0,1,8
7500,-4.95,4.32,8.07,0,1,8
7520,-5.43,3.62,6.89,0,1,8
7540,-4.55,3.5,6.67,0,1,8
7560,-6.27,4.35,6.83,0,1,8
7580,-4.85,5.16,7.02,0,1,8
7600,-5.03,5.14,6.76,0,1,8
7620,-5.58,5.46,6.42,0,1,8
7640,-5.65,5.49,6.24,0,1,8
7660,-5.51,4.79,5.65,0,1,8
7680,-5.55,4.39,5.7,0,1,8
7700,-5.98,4.81,5.66,0,1,8
7720,-6.36,5.5,5.12,0,1,8
7740,-6.5,5.31,5.34,0,1,8
7760,-6.22,5.26,5.33,0,1,8
7780,-6.19,5.24,4.73,0,1,8
5900,-1.69,7.32,19.62,0,1,9
5920,-1.26,-0.11,19.62,0,1,9
5940,1.29,-1.04,19.62,0,1,9
5960,-0.13,-1.41,19.62,0,1,9
5980,2.0,-3.3,19.37,0,1,9
6000,0.45,-7.15,12.77,0,1,9
6020,2.15,-5.7,11.36,0,1,9
6040,3.38,-3.56,9.81,0,1,9
6060,2.12,-2.5,8.25,0,1,9
6080,-0.6,-3.0,6.64,0,1,9
6100,1.19,-2.17,3.84,0,1,9
6120,2.93,-0.33,4.23,0,1,9
6140,1.18,0.48,3.3,0,1,9
6160,0.8,-0.68,2.3,0,1,9
6180,1.31,-2.45,1.09,0,1,9
6200,2.99,-5.08,3.74,0,1,9
6220,-0.31,-1.97,2.98,0,1,9
6240,-0.76,0.86,6.09,0,1,9
6260,-0.81,0.38,6.65,0,1,9
6280,0.26,-1.89,7.71,0,1,9
6300,-1.51,-3.06,7.15,0,1,9
6320,-3.27,-0.57,8.54,0,1,9
6340,-4.58,0.71,10.16,0,1,9
6360,-4.95,0.38,11.88,0,1,9
6380,-6.77,2.09,12.17,0,1,9
6400,-7.76,2.92,11.36,0,1,9
6420,-9.36,3.3,10.85,0,1,9
6440,-10.68,4.97,12.26,0,1,9
6460,-10.57,5.45,10.98,0,1,9
6480,-13.14,5.88,8.98,0,1,9
6500,-12.28,5.36,7.48,0,1,9
6520,-8.91,1.1,7.61,0,1,9
6540,-9.79,0.19,6.88,0,1,9
6560,-9.71,-0.32,4.56,0,1,9
6580,-8.16,0.4,3.22,0,1,9
6600,-7.22,0.49,4.33,0,1,9
6620,-5.93,0.49,5.41,0,1,9
6640,-5.49,0.05,5.25,0,1,9
6660,-5.38,0.21,4.81,0,1,9
6680,-4.82,-0.68,4.19,0,1,9
6700,-3.97,-0.91,5.45,0,1,9
6720,-4.08,-0.41,5.58,0,1,9
6740,-5.34,-0.17,4.99,0,1,9
6760,-5.9,-0.6,5.34,0,1,9
6780,-5.79,-0.91,6.02,0,1,9
6800,-6.11,-1.38,6.65,0,1,9
6820,-5.27,-2.2,7.01,0,1,9
6840,-5.69,-2.85,8.37,0,1,9
6860,-5.39,-1.51,10.19,0,1,9
6880,-5.67,-1.15,9.82,0,1,9
6900,-6.27,-1.84,8.45,0,1,9
6920,-5.23,-1.51,9.27,0,1,9
6940,-5.63,-1.77,9.34,0,1,9
6960,-5.42,-0.74,7.94,0,1,9
6980,-5.5,-0.8,8.21,0,1,9
7000,-5.03,-1.52,8.43,0,1,9
7020,-4.89,-1.5,8.33,0,1,9
7040,-4.51,-0.96,7.75,0,1,9
7060,-4.35,-0.3,8.0,0,1,9
7080,-4.19,-0.05,8.71,0,1,9
7100,-5.33,-0.02,6.34,0,1,9
7120,-5.55,-0.23,4.92,0,1,9
7140,-4.91,-0.81,5.88,0,1,9
7160,-4.67,-0.62,7.09,0,1,9
7180,-6.06,0.08,9.35,0,1,9
7200,-4.81,-0.36,7.35,0,1,9
7220,-5.63,0.05,7.97,0,1,9
7240,-5.77,-0.08,7.02,0,1,9
7260,-5.73,-0.03,6.92,0,1,9
7280,-5.81,-0.12,7.7,0,1,9
7300,-5.53,0.27,7.4,0,1,9
7320,-5.66,0.74,7.81,0,1,9
7340,-5.8,1.5,8.61,0,1,9
7360,-6.24,0.94,7.85,0,1,9
7380,-6.14,0.41,6.71,0,1,9
7400,-5.48,1.57,7.51,0,1,9
7420,-5.03,2.62,8.26,0,1,9
7440,-5.73,2.6,7.56,0,1,9
7460,-5.39,2.56,6.21,0,1,9
7480,-5.58,3.93,7.26,0,1,9
7500,-4.95,4.32,8.07,0,1,9
7520,-5.43,3.62,6.89,0,1,9
7540,-4.55,3.5,6.67,0,1,9
7560,-6.27,4.35,6.83,0,1,9
7580,-4.85,5.16,7.02,0,1,9
7600,-5.03,5.14,6.76,0,1,9
7620,-5.58,5.46,6.42,0,1,9
7640,-5.65,5.49,6.24,0,1,9
7660,-5.51,4.79,5.65,0,1,9
7680,-5.55,4.39,5.7,0,1,9
7700,-5.98,4.81,5.66,0,1,9
7720,-6.36,5.5,5.12,0,1,9
7740,-6.5,5.31,5.34,0,1,9
7760,-6.22,5.26,5.33,0,1,9
7780,-6.19,5.24,4.73,0,1,9
7800,-6.56,5.25,4.74,0,1,9
7820,-6.05,5.69,5.23,0,1,9
7840,-6.48,6.94,4.29,0,1,9
7860,-6.58,7.12,4.19,0,1,9
7880,-6.5,6.58,4.7,0,1,9
6000,0.45,-7.15,12.77,0,1,10
6020,2.15,-5.7,11.36,0,1,10
6040,3.38,-3.56,9.81,0,1,10
6060,2.12,-2.5,8.25,0,1,10
6080,-0.6,-3.0,6.64,0,1,10
6100,1.19,-2.17,3.84,0,1,10
6120,2.93,-0.33,4.23,0,1,10
6140,1.18,0.48,3.3,0,1,10
6160,0.8,-0.68,2.3,0,1,10
6180,1.31,-2.45,1.09,0,1,10
6200,2.99,-5.08,3.74,0,1,10
6220,-0.31,-1.97,2.98,0,1,10
6240,-0.76,0.86,6.09,0,1,10
6260,-0.81,0.38,6.65,0,1,10
6280,0.26,-1.89,7.71,0,1,10
6300,-1.51,-3.06,7.15,0,1,10
6320,-3.27,-0.57,8.54,0,1,10
6340,-4.58,0.71,10.16,0,1,10
6360,-4.95,0.38,11.88,0,1,10
6380,-6.77,2.09,12.17,0,1,10
6400,-7.76,2.92,11.36,0,1,10
6420,-9.36,3.3,10.85,0,1,10
6440,-10.68,4.97,12.26,0,1,10
6460,-10.57,5.45,10.98,0,1,10
6480,-13.14,5.88,8.98,0,1,10
6500,-12.28,5.36,7.48,0,1,10
6520,-8.91,1.1,7.61,0,1,10
6540,-9.79,0.19,6.88,0,1,10
6560,-9.71,-0.32,4.56,0,1,10
6580,-8.16,0.4,3.22,0,1,10
6600,-7.22,0.49,4.33,0,1,10
6620,-5.93,0.49,5.41,0,1,10
6640,-5.49,0.05,5.25,0,1,10
6660,-5.38,0.21,4.81,0,1,10
6680,-4.82,-0.68,4.19,0,1,10
6700,-3.97,-0.91,5.45,0,1,10
6720,-4.08,-0.41,5.58,0,1,10
6740,-5.34,-0.17,4.99,0,1,10
6760,-5.9,-0.6,5.34,0,1,10
6780,-5.79,-0.91,6.02,0,1,10
6800,-6.11,-1.38,6.65,0,1,10
6820,-5.27,-2.2,7.01,0,1,10
6840,-5.69,-2.85,8.37,0,1,10
6860,-5.39,-1.51,10.19,0,1,10
6880,-5.67,-1.15,9.82,0,1,10
6900,-6.27,-1.84,8.45,0,1,10
6920,-5.23,-1.51,9.27,0,1,10
6940,-5.63,-1.77,9.34,0,1,10
6960,-5.42,-0.74,7.94,0,1,10
6980,-5.5,-0.8,8.21,0,1,10
7000,-5.03,-1.52,8.43,0,1,10
7020,-4.89,-1.5,8.33,0,1,10
7040,-4.51,-0.96,7.75,0,1,10
7060,-4.35,-0.3,8.0,0,1,10
7080,-4.19,-0.05,8.71,0,1,10
7100,-5.33,-0.02,6.34,0,1,10
7120,-5.55,-0.23,4.92,0,1,10
7140,-4.91,-0.81,5.88,0,1,10
7160,-4.67,-0.62,7.09,0,1,10
7180,-6.06,0.08,9.35,0,1,10
7200,-4.81,-0.36,7.35,0,1,10
7220,-5.63,0.05,7.97,0,1,10
7240,-5.77,-0.08,7.02,0,1,10
7260,-5.73,-0.03,6.92,0,1,10
7280,-5.81,-0.12,7.7,0,1,10
7300,-5.53,0.27,7.4,0,1,10
7320,-5.66,0.74,7.81,0,1,10
7340,-5.8,1.5,8.61,0,1,10
7360,-6.24,0.94,7.85,0,1,10
7380,-6.14,0.41,6.71,0,1,10
7400,-5.48,1.57,7.51,0,1,10
7420,-5.03,2.62,8.26,0,1,10
7440,-5.73,2.6,7.56,0,1,10
7460,-5.39,2.56,6.21,0,1,10
7480,-5.58,3.93,7.26,0,1,10
7500,-4.95,4.32,8.07,0,1,10
7520,-5.43,3.62,6.89,0,1,10
7540,-4.55,3.5,6.67,0,1,10
7560,-6.27,4.35,6.83,0,1,10
7580,-4.85,5.16,7.02,0,1,10
7600,-5.03,5.14,6.76,0,1,10
7620,-5.58,5.46,6.42,0,1,10
7640,-5.65,5.49,6.24,0,1,10
7660,-5.51,4.79,5.65,0,1,10
7680,-5.55,4.39,5.7,0,1,10
7700,-5.98,4.81,5.66,0,1,10
7720,-6.36,5.5,5.12,0,1,10
7740,-6.5,5.31,5.34,0,1,10
7760,-6.22,5.26,5.33,0,1,10
7780,-6.19,5.24,4.73,0,1,10
7800,-6.56,5.25,4.74,0,1,10
7820,-6.05,5.69,5.23,0,1,10
7840,-6.48,6.94,4.29,0,1,10
7860,-6.58,7.12,4.19,0,1,10
7880,-6.5,6.58,4.7,0,1,10
7900,-6.26,6.42,4.41,0,1,10
7920,-6.15,6.86,3.91,0,1,10
7940,-6.72,7.0,3.75,0,1,10
7960,-6.69,7.1,4.42,0,1,10
7980,-6.46,7.22,3.9,0,1,10
16320,-7.79,4.21,-5.72,1,2,1
16340,-7.19,3.87,-5.01,1,2,1
16360,-7.25,2.23,-5.99,1,2,1
16380,-6.89,3.19,-4.87,1,2,1
16400,-6.88,4.87,-4.11,1,2,1
16420,-6.99,4.82,-4.33,1,2,1
16440,-6.84,3.6,-4.88,0,2,1
16460,-6.23,2.66,-6.58,0,2,1
16480,-6.77,2.79,-6.93,0,2,1
16500,-6.54,3.32,-5.82,0,2,1
16520,-6.13,3.01,-5.25,0,2,1
16540,-6.81,3.67,-5.67,0,2,1
16560,-6.79,4.02,-5.78,0,2,1
16580,-6.68,4.08,-5.67,0,2,1
16600,-6.9,3.36,-5.87,0,2,1
16620,-7.22,2.72,-6.01,0,2,1
16640,-6.79,2.1,-6.02,0,2,1
16660,-6.74,1.51,-6.47,0,2,1
16680,-6.23,0.8,-5.88,0,2,1
16700,-6.93,0.42,-6.11,0,2,1
16720,-6.68,0.82,-7.49,0,2,1
16740,-4.9,2.47,-4.91,0,2,1
16760,-3.77,3.45,-3.32,0,2,1
16780,-4.27,3.78,-2.74,0,2,1
16800,-5.35,4.33,-4.36,0,2,1
16820,-4.81,4.3,-3.66,0,2,1
16840,-4.36,3.63,-2.71,0,2,1
16860,-2.53,3.38,-0.62,0,2,1
16880,-4.07,3.22,-2.88,0,2,1
16900,-4.95,0.19,-5.87,0,2,1
16920,-4.5,-1.94,-6.29,0,2,1
16940,-5.48,-1.49,-6.5,0,2,1
16960,-5.34,0.32,-3.61,0,2,1
16980,-6.96,1.32,-3.11,0,2,1
17000,-6.96,1.61,-3.56,0,2,1
17020,-10.06,-0.59,-3.0,0,2,1
17040,-12.75,-3.94,-6.88,0,2,1
17060,-11.68,-7.47,-10.86,0,2,1
17080,-12.4,-13.1,-11.64,0,2,1
17100,-13.45,-12.95,-12.66,0,2,1
17120,-12.25,-7.76,-11.64,0,2,1
17140,-9.43,-0.65,-6.6,0,2,1
17160,-10.35,6.12,-2.66,0,2,1
17180,-10.16,12.49,5.7,0,2,1
17200,-5.22,14.48,10.22,0,2,1
17220,-11.67,9.98,11.41,0,2,1
17240,-15.11,6.1,4.52,0,2,1
17260,-5.14,0.59,14.34,0,2,1
17280,-2.44,-1.45,18.21,0,2,1
17300,-2.5,-0.04,19.62,0,2,1
17320,-3.1,1.01,19.62,0,2,1
17340,-2.64,1.08,19.62,0,2,1
17360,-0.76,-2.25,19.62,0,2,1
17380,-0.39,-3.51,17.5,0,2,1
17400,-1.96,0.74,14.79,0,2,1
17420,-2.18,0.46,12.61,0,2,1
17440,0.08,-2.24,9.91,0,2,1
17460,0.87,-2.28,8.62,0,2,1
17480,-0.59,-0.79,6.36,0,2,1
17500,0.3,0.67,5.44,0,2,1
17520,0.56,1.11,5.85,0,2,1
17540,-0.12,0.43,4.5,0,2,1
17560,-0.65,-1.4,3.11,0,2,1
17580,0.04,-2.4,3.07,0,2,1
17600,0.12,-3.35,3.71,0,2,1
17620,-0.17,-3.42,4.62,0,2,1
17640,-0.03,-3.65,5.72,0,2,1
17660,-1.13,-3.52,6.36,0,2,1
17680,-3.65,-3.83,7.19,0,2,1
17700,-4.39,-4.7,8.55,0,2,1
17720,-5.05,-5.48,9.32,0,2,1
17740,-5.25,-6.28,9.56,0,2,1
17760,-7.11,-6.56,9.17,0,2,1
17780,-7.95,-6.6,9.41,0,2,1
17800,-7.66,-6.56,8.27,0,2,1
17820,-7.59,-6.1,8.34,0,2,1
17840,-7.53,-5.24,7.55,0,2,1
17860,-7.46,-4.59,6.61,0,2,1
17880,-6.81,-4.15,5.96,0,2,1
17900,-6.55,-3.91,5.56,0,2,1
17920,-6.76,-3.8,5.09,0,2,1
17940,-5.93,-3.86,5.19,0,2,1
17960,-5.86,-3.34,4.88,0,2,1
17980,-5.54,-3.08,4.86,0,2,1
18000,-5.31,-2.8,5.2,0,2,1
18020,-5.15,-3.15,5.06,0,2,1
18040,-5.31,-3.52,4.84,0,2,1
18060,-5.53,-3.8,4.84,0,2,1
18080,-5.71,-4.24,5.51,0,2,1
18100,-5.39,-4.9,6.42,0,2,1
18120,-5.36,-5.56,6.67,0,2,1
18140,-5.13,-5.76,6.72,0,2,1
18160,-5.16,-5.55,6.72,0,2,1
18180,-5.08,-5.09,7.08,0,2,1
18200,-4.72,-4.67,7.67,0,2,1
18220,-4.91,-4.44,7.54,0,2,1
18240,-5.02,-4.49,7.46,0,2,1
18260,-5.03,-4.39,7.52,0,2,1
18280,-4.67,-4.15,7.62,0,2,1
18300,-4.44,-3.69,7.96,0,2,1
16420,-6.99,4.82,-4.33,1,2,2
16440,-6.84,3.6,-4.88,0,2,2
16460,-6.23,2.66,-6.58,0,2,2
16480,-6.77,2.79,-6.93,0,2,2
16500,-6.54,3.32,-5.82,0,2,2
16520,-6.13,3.01,-5.25,0,2,2
16540,-6.81,3.67,-5.67,0,2,2
16560,-6.79,4.02,-5.78,0,2,2
16580,-6.68,4.08,-5.67,0,2,2
16600,-6.9,3.36,-5.87,0,2,2
16620,-7.22,2.72,-6.01,0,2,2
16640,-6.79,2.1,-6.02,0,2,2
16660,-6.74,1.51,-6.47,0,2,2
16680,-6.23,0.8,-5.88,0,2,2
16700,-6.93,0.42,-6.11,0,2,2
16720,-6.68,0.82,-7.49,0,2,2
16740,-4.9,2.47,-4.91,0,2,2
16760,-3.77,3.45,-3.32,0,2,2
16780,-4.27,3.78,-2.74,0,2,2
16800,-5.35,4.33,-4.36,0,2,2
16820,-4.81,4.3,-3.66,0,2,2
16840,-4.36,3.63,-2.71,0,2,2
16860,-2.53,3.38,-0.62,0,2,2
16880,-4.07,3.22,-2.88,0,2,2
16900,-4.95,0.19,-5.87,0,2,2
16920,-4.5,-1.94,-6.29,0,2,2
16940,-5.48,-1.49,-6.5,0,2,2
16960,-5.34,0.32,-3.61,0,2,2
16980,-6.96,1.32,-3.11,0,2,2
17000,-6.96,1.61,-3.56,0,2,2
17020,-10.06,-0.59,-3.0,0,2,2
17040,-12.75,-3.94,-6.88,0,2,2
17060,-11.68,-7.47,-10.86,0,2,2
17080,-12.4,-13.1,-11.64,0,2,2
17100,-13.45,-12.95,-12.66,0,2,2
17120,-12.25,-7.76,-11.64,0,2,2
17140,-9.43,-0.65,-6.6,0,2,2
17160,-10.35,6.12,-2.66,0,2,2
17180,-10.16,12.49,5.7,0,2,2
17200,-5.22,14.48,10.22,0,2,2
17220,-11.67,9.98,11.41,0,2,2
17240,-15.11,6.1,4.52,0,2,2
17260,-5.14,0.59,14.34,0,2,2
17280,-2.44,-1.45,18.21,0,2,2
17300,-2.5,-0.04,19.62,0,2,2
17320,-3.1,1.01,19.62,0,2,2
17340,-2.64,1.08,19.62,0,2,2
17360,-0.76,-2.25,19.62,0,2,2
17380,-0.39,-3.51,17.5,0,2,2
17400,-1.96,0.74,14.79,0,2,2
17420,-2.18,0.46,12.61,0,2,2
17440,0.08,-2.24,9.91,0,2,2
17460,0.87,-2.28,8.62,0,2,2
17480,-0.59,-0.79,6.36,0,2,2
17500,0.3,0.67,5.44,0,2,2
17520,0.56,1.11,5.85,0,2,2
17540,-0.12,0.43,4.5,0,2,2
17560,-0.65,-1.4,3.11,0,2,2
17580,0.04,-2.4,3.07,0,2,2
17600,0.12,-3.35,3.71,0,2,2
17620,-0.17,-3.42,4.62,0,2,2
17640,-0.03,-3.65,5.72,0,2,2
17660,-1.13,-3.52,6.36,0,2,2
17680,-3.65,-3.83,7.19,0,2,2
17700,-4.39,-4.7,8.55,0,2,2
17720,-5.05,-5.48,9.32,0,2,2
17740,-5.25,-6.28,9.56,0,2,2
17760,-7.11,-6.56,9.17,0,2,2
17780,-7.95,-6.6,9.41,0,2,2
17800,-7.66,-6.56,8.27,0,2,2
17820,-7.59,-6.1,8.34,0,2,2
17840,-7.53,-5.24,7.55,0,2,2
17860,-7.46,-4.59,6.61,0,2,2
17880,-6.81,-4.15,5.96,0,2,2
17900,-6.55,-3.91,5.56,0,2,2
17920,-6.76,-3.8,5.09,0,2,2
17940,-5.93,-3.86,5.19,0,2,2
17960,-5.86,-3.34,4.88,0,2,2
17980,-5.54,-3.08,4.86,0,2,2
18000,-5.31,-2.8,5.2,0,2,2
18020,-5.15,-3.15,5.06,0,2,2
18040,-5.31,-3.52,4.84,0,2,2
18060,-5.53,-3.8,4.84,0,2,2
18080,-5.71,-4.24,5.51,0,2,2
18100,-5.39,-4.9,6.42,0,2,2
18120,-5.36,-5.56,6.67,0,2,2
18140,-5.13,-5.76,6.72,0,2,2
18160,-5.16,-5.55,6.72,0,2,2
18180,-5.08,-5.09,7.08,0,2,2
18200,-4.72,-4.67,7.67,0,2,2
18220,-4.91,-4.44,7.54,0,2,2
18240,-5.02,-4.49,7.46,0,2,2
18260,-5.03,-4.39,7.52,0,2,2
18280,-4.67,-4.15,7.62,0,2,2
18300,-4.44,-3.69,7.96,0,2,2
18320,-3.76,-3.28,8.37,0,2,2
18340,-3.98,-3.23,8.28,0,2,2
18360,-4.34,-3.59,7.86,0,2,2
18380,-4.85,-3.82,6.67,0,2,2
18400,-4.8,-3.84,6.57,0,2,2
16520,-6.13,3.01,-5.25,0,2,3
16540,-6.81,3.67,-5.67,0,2,3
16560,-6.79,4.02,-5.78,0,2,3
16580,-6.68,4.08,-5.67,0,2,3
16600,-6.9,3.36,-5.87,0,2,3
16620,-7.22,2.72,-6.01,0,2,3
16640,-6.79,2.1,-6.02,0,2,3
16660,-6.74,1.51,-6.47,0,2,3
16680,-6.23,0.8,-5.88,0,2,3
16700,-6.93,0.42,-6.11,0,2,3
16720,-6.68,0.82,-7.49,0,2,3
16740,-4.9,2.47,-4.91,0,2,3
16760,-3.77,3.45,-3.32,0,2,3
16780,-4.27,3.78,-2.74,0,2,3
16800,-5.35,4.33,-4.36,0,2,3
16820,-4.81,4.3,-3.66,0,2,3
16840,-4.36,3.63,-2.71,0,2,3
16860,-2.53,3.38,-0.62,0,2,3
16880,-4.07,3.22,-2.88,0,2,3
16900,-4.95,0.19,-5.87,0,2,3
16920,-4.5,-1.94,-6.29,0,2,3
16940,-5.48,-1.49,-6.5,0,2,3
16960,-5.34,0.32,-3.61,0,2,3
16980,-6.96,1.32,-3.11,0,2,3
17000,-6.96,1.61,-3.56,0,2,3
17020,-10.06,-0.59,-3.0,0,2,3
17040,-12.75,-3.94,-6.88,0,2,3
17060,-11.68,-7.47,-10.86,0,2,3
17080,-12.4,-13.1,-11.64,0,2,3
17100,-13.45,-12.95,-12.66,0,2,3
17120,-12.25,-7.76,-11.64,0,2,3
17140,-9.43,-0.65,-6.6,0,2,3
17160,-10.35,6.12,-2.66,0,2,3
17180,-10.16,12.49,5.7,0,2,3
17200,-5.22,14.48,10.22,0,2,3
17220,-11.67,9.98,11.41,0,2,3
17240,-15.11,6.1,4.52,0,2,3
17260,-5.14,0.59,14.34,0,2,3
17280,-2.44,-1.45,18.21,0,2,3
17300,-2.5,-0.04,19.62,0,2,3
17320,-3.1,1.01,19.62,0,2,3
17340,-2.64,1.08,19.62,0,2,3
17360,-0.76,-2.25,19.62,0,2,3
17380,-0.39,-3.51,17.5,0,2,3
17400,-1.96,0.74,14.79,0,2,3
17420,-2.18,0.46,12.61,0,2,3
17440,0.08,-2.24,9.91,0,2,3
17460,0.87,-2.28,8.62,0,2,3
17480,-0.59,-0.79,6.36,0,2,3
17500,0.3,0.67,5.44,0,2,3
17520,0.56,1.11,5.85,0,2,3
17540,-0.12,0.43,4.5,0,2,3
17560,-0.65,-1.4,3.11,0,2,3
17580,0.04,-2.4,3.07,0,2,3
17600,0.12,-3.35,3.71,0,2,3
17620,-0.17,-3.42,4.62,0,2,3
17640,-0.03,-3.65,5.72,0,2,3
17660,-1.13,-3.52,6.36,0,2,3
17680,-3.65,-3.83,7.19,0,2,3
17700,-4.39,-4.7,8.55,0,2,3
17720,-5.05,-5.48,9.32,0,2,3
17740,-5.25,-6.28,9.56,0,2,3
17760,-7.11,-6.56,9.17,0,2,3
17780,-7.95,-6.6,9.41,0,2,3
17800,-7.66,-6.56,8.27,0,2,3
17820,-7.59,-6.1,8.34,0,2,3
17840,-7.53,-5.24,7.55,0,2,3
17860,-7.46,-4.59,6.61,0,2,3
17880,-6.81,-4.15,5.96,0,2,3
17900,-6.55,-3.91,5.56,0,2,3
17920,-6.76,-3.8,5.09,0,2,3
17940,-5.93,-3.86,5.19,0,2,3
17960,-5.86,-3.34,4.88,0,2,3
17980,-5.54,-3.08,4.86,0,2,3
18000,-5.31,-2.8,5.2,0,2,3
18020,-5.15,-3.15,5.06,0,2,3
18040,-5.31,-3.52,4.84,0,2,3
18060,-5.53,-3.8,4.84,0,2,3
18080,-5.71,-4.24,5.51,0,2,3
18100,-5.39,-4.9,6.42,0,2,3
18120,-5.36,-5.56,6.67,0,2,3
18140,-5.13,-5.76,6.72,0,2,3
18160,-5.16,-5.55,6.72,0,2,3
18180,-5.08,-5.09,7.08,0,2,3
18200,-4.72,-4.67,7.67,0,2,3
18220,-4.91,-4.44,7.54,0,2,3
18240,-5.02,-4.49,7.46,0,2,3
18260,-5.03,-4.39,7.52,0,2,3
18280,-4.67,-4.15,7.62,0,2,3
18300,-4.44,-3.69,7.96,0,2,3
18320,-3.76,-3.28,8.37,0,2,3
18340,-3.98,-3.23,8.28,0,2,3
18360,-4.34,-3.59,7.86,0,2,3
18380,-4.85,-3.82,6.67,0,2,3
18400,-4.8,-3.84,6.57,0,2,3
18420,-4.48,-3.91,7.33,0,2,3
18440,-3.95,-3.9,6.9,0,2,3
18460,-4.51,-3.81,6.59,0,2,3
18480,-4.13,-3.91,6.87,0,2,3
18500,-4.65,-3.58,7.1,0,2,3
16620,-7.22,2.72,-6.01,0,2,4
16640,-6.79,2.1,-6.02,0,2,4
16660,-6.74,1.51,-6.47,0,2,4
16680,-6.23,0.8,-5.88,0,2,4
16700,-6.93,0.42,-6.11,0,2,4
16720,-6.68,0.82,-7.49,0,2,4
16740,-4.9,2.47,-4.91,0,2,4
16760,-3.77,3.45,-3.32,0,2,4
16780,-4.27,3.78,-2.74,0,2,4
16800,-5.35,4.33,-4.36,0,2,4
16820,-4.81,4.3,-3.66,0,2,4
16840,-4.36,3.63,-2.71,0,2,4
16860,-2.53,3.38,-0.62,0,2,4
16880,-4.07,3.22,-2.88,0,2,4
16900,-4.95,0.19,-5.87,0,2,4
16920,-4.5,-1.94,-6.29,0,2,4
16940,-5.48,-1.49,-6.5,0,2,4
16960,-5.34,0.32,-3.61,0,2,4
16980,-6.96,1.32,-3.11,0,2,4
17000,-6.96,1.61,-3.56,0,2,4
17020,-10.06,-0.59,-3.0,0,2,4
17040,-12.75,-3.94,-6.88,0,2,4
17060,-11.68,-7.47,-10.86,0,2,4
17080,-12.4,-13.1,-11.64,0,2,4
17100,-13.45,-12.95,-12.66,0,2,4
17120,-12.25,-7.76,-11.64,0,2,4
17140,-9.43,-0.65,-6.6,0,2,4
17160,-10.35,6.12,-2.66,0,2,4
17180,-10.16,12.49,5.7,0,2,4
17200,-5.22,14.48,10.22,0,2,4
17220,-11.67,9.98,11.41,0,2,4
17240,-15.11,6.1,4.52,0,2,4
17260,-5.14,0.59,14.34,0,2,4
17280,-2.44,-1.45,18.21,0,2,4
17300,-2.5,-0.04,19.62,0,2,4
17320,-3.1,1.01,19.62,0,2,4
17340,-2.64,1.08,19.62,0,2,4
17360,-0.76,-2.25,19.62,0,2,4
17380,-0.39,-3.51,17.5,0,2,4
17400,-1.96,0.74,14.79,0,2,4
17420,-2.18,0.46,12.61,0,2,4
17440,0.08,-2.24,9.91,0,2,4
17460,0.87,-2.28,8.62,0,2,4
17480,-0.59,-0.79,6.36,0,2,4
17500,0.3,0.67,5.44,0,2,4
17520,0.56,1.11,5.85,0,2,4
17540,-0.12,0.43,4.5,0,2,4
17560,-0.65,-1.4,3.11,0,2,4
17580,0.04,-2.4,3.07,0,2,4
17600,0.12,-3.35,3.71,0,2,4
17620,-0.17,-3.42,4.62,0,2,4
17640,-0.03,-3.65,5.72,0,2,4
17660,-1.13,-3.52,6.36,0,2,4
17680,-3.65,-3.83,7.19,0,2,4
17700,-4.39,-4.7,8.55,0,2,4
17720,-5.05,-5.48,9.32,0,2,4
17740,-5.25,-6.28,9.56,0,2,4
17760,-7.11,-6.56,9.17,0,2,4
17780,-7.95,-6.6,9.41,0,2,4
17800,-7.66,-6.56,8.27,0,2,4
17820,-7.59,-6.1,8.34,0,2,4
17840,-7.53,-5.24,7.55,0,2,4
17860,-7.46,-4.59,6.61,0,2,4
17880,-6.81,-4.15,5.96,0,2,4
17900,-6.55,-3.91,5.56,0,2,4
17920,-6.76,-3.8,5.09,0,2,4
17940,-5.93,-3.86,5.19,0,2,4
17960,-5.86,-3.34,4.88,0,2,4
17980,-5.54,-3.08,4.86,0,2,4
18000,-5.31,-2.8,5.2,0,2,4
18020,-5.15,-3.15,5.06,0,2,4
18040,-5.31,-3.52,4.84,0,2,4
18060,-5.53,-3.8,4.84,0,2,4
18080,-5.71,-4.24,5.51,0,2,4
18100,-5.39,-4.9,6.42,0,2,4
18120,-5.36,-5.56,6.67,0,2,4
18140,-5.13,-5.76,6.72,0,2,4
18160,-5.16,-5.55,6.72,0,2,4
18180,-5.08,-5.09,7.08,0,2,4
18200,-4.72,-4.67,7.67,0,2,4
18220,-4.91,-4.44,7.54,0,2,4
18240,-5.02,-4.49,7.46,0,2,4
18260,-5.03,-4.39,7.52,0,2,4
18280,-4.67,-4.15,7.62,0,2,4
18300,-4.44,-3.69,7.96,0,2,4
18320,-3.76,-3.28,8.37,0,2,4
18340,-3.98,-3.23,8.28,0,2,4
18360,-4.34,-3.59,7.86,0,2,4
18380,-4.85,-3.82,6.67,0,2,4
18400,-4.8,-3.84,6.57,0,2,4
18420,-4.48,-3.91,7.33,0,2,4
18440,-3.95,-3.9,6.9,0,2,4
18460,-4.51,-3.81,6.59,0,2,4
18480,-4.13,-3.91,6.87,0,2,4
18500,-4.65,-3.58,7.1,0,2,4
18520,-5.35,-3.09,6.9,0,2,4
18540,-5.37,-2.93,7.21,0,2,4
18560,-6.01,-3.68,6.74,0,2,4
18580,-5.56,-4.39,7.05,0,2,4
18600,-5.88,-3.95,7.34,0,2,4
16720,-6.68,0.82,-7.49,0,2,5
16740,-4.9,2.47,-4.91,0,2,5
16760,-3.77,3.45,-3.32,0,2,5
16780,-4.27,3.78,-2.74,0,2,5
16800,-5.35,4.33,-4.36,0,2,5
16820,-4.81,4.3,-3.66,0,2,5
16840,-4.36,3.63,-2.71,0,2,5
16860,-2.53,3.38,-0.62,0,2,5
16880,-4.07,3.22,-2.88,0,2,5
16900,-4.95,0.19,-5.87,0,2,5
16920,-4.5,-1.94,-6.29,0,2,5
16940,-5.48,-1.49,-6.5,0,2,5
16960,-5.34,0.32,-3.61,0,2,5
16980,-6.96,1.32,-3.11,0,2,5
17000,-6.96,1.61,-3.56,0,2,5
17020,-10.06,-0.59,-3.0,0,2,5
17040,-12.75,-3.94,-6.88,0,2,5
17060,-11.68,-7.47,-10.86,0,2,5
17080,-12.4,-13.1,-11.64,0,2,5
17100,-13.45,-12.95,-12.66,0,2,5
17120,-12.25,-7.76,-11.64,0,2,5
17140,-9.43,-0.65,-6.6,0,2,5
17160,-10.35,6.12,-2.66,0,2,5
17180,-10.16,12.49,5.7,0,2,5
17200,-5.22,14.48,10.22,0,2,5
17220,-11.67,9.98,11.41,0,2,5
17240,-15.11,6.1,4.52,0,2,5
17260,-5.14,0.59,14.34,0,2,5
17280,-2.44,-1.45,18.21,0,2,5
17300,-2.5,-0.04,19.62,0,2,5
17320,-3.1,1.01,19.62,0,2,5
17340,-2.64,1.08,19.62,0,2,5
17360,-0.76,-2.25,19.62,0,2,5
17380,-0.39,-3.51,17.5,0,2,5
17400,-1.96,0.74,14.79,0,2,5
17420,-2.18,0.46,12.61,0,2,5
17440,0.08,-2.24,9.91,0,2,5
17460,0.87,-2.28,8.62,0,2,5
17480,-0.59,-0.79,6.36,0,2,5
17500,0.3,0.67,5.44,0,2,5
17520,0.56,1.11,5.85,0,2,5
17540,-0.12,0.43,4.5,0,2,5
17560,-0.65,-1.4,3.11,0,2,5
17580,0.04,-2.4,3.07,0,2,5
17600,0.12,-3.35,3.71,0,2,5
17620,-0.17,-3.42,4.62,0,2,5
17640,-0.03,-3.65,5.72,0,2,5
17660,-1.13,-3.52,6.36,0,2,5
17680,-3.65,-3.83,7.19,0,2,5
17700,-4.39,-4.7,8.55,0,2,5
17720,-5.05,-5.48,9.32,0,2,5
17740,-5.25,-6.28,9.56,0,2,5
17760,-7.11,-6.56,9.17,0,2,5
17780,-7.95,-6.6,9.41,0,2,5
17800,-7.66,-6.56,8.27,0,2,5
17820,-7.59,-6.1,8.34,0,2,5
17840,-7.53,-5.24,7.55,0,2,5
17860,-7.46,-4.59,6.61,0,2,5
17880,-6.81,-4.15,5.96,0,2,5
17900,-6.55,-3.91,5.56,0,2,5
17920,-6.76,-3.8,5.09,0,2,5
17940,-5.93,-3.86,5.19,0,2,5
17960,-5.86,-3.34,4.88,0,2,5
17980,-5.54,-3.08,4.86,0,2,5
18000,-5.31,-2.8,5.2,0,2,5
18020,-5.15,-3.15,5.06,0,2,5
18040,-5.31,-3.52,4.84,0,2,5
18060,-5.53,-3.8,4.84,0,2,5
18080,-5.71,-4.24,5.51,0,2,5
18100,-5.39,-4.9,6.42,0,2,5
18120,-5.36,-5.56,6.67,0,2,5
18140,-5.13,-5.76,6.72,0,2,5
18160,-5.16,-5.55,6.72,0,2,5
18180,-5.08,-5.09,7.08,0,2,5
18200,-4.72,-4.67,7.67,0,2,5
18220,-4.91,-4.44,7.54,0,2,5
18240,-5.02,-4.49,7.46,0,2,5
18260,-5.03,-4.39,7.52,0,2,5
18280,-4.67,-4.15,7.62,0,2,5
18300,-4.44,-3.69,7.96,0,2,5
18320,-3.76,-3.28,8.37,0,2,5
18340,-3.98,-3.23,8.28,0,2,5
18360,-4.34,-3.59,7.86,0,2,5
18380,-4.85,-3.82,6.67,0,2,5
18400,-4.8,-3.84,6.57,0,2,5
18420,-4.48,-3.91,7.33,0,2,5
18440,-3.95,-3.9,6.9,0,2,5
18460,-4.51,-3.81,6.59,0,2,5
18480,-4.13,-3.91,6.87,0,2,5
18500,-4.65,-3.58,7.1,0,2,5
18520,-5.35,-3.09,6.9,0,2,5
18540,-5.37,-2.93,7.21,0,2,5
18560,-6.01,-3.68,6.74,0,2,5
18580,-5.56,-4.39,7.05,0,2,5
18600,-5.88,-3.95,7.34,0,2,5
18620,-6.22,-2.45,7.32,0,2,5
18640,-6.71,-1.77,7.0,0,2,5
18660,-6.39,-1.84,6.87,0,2,5
18680,-7.84,-2.32,6.56,0,2,5
18700,-7.08,-2.19,6.61,0,2,5
16820,-4.81,4.3,-3.66,0,2,6
16840,-4.36,3.63,-2.71,0,2,6
16860,-2.53,3.38,-0.62,0,2,6
16880,-4.07,3.22,-2.88,0,2,6
16900,-4.95,0.19,-5.87,0,2,6
16920,-4.5,-1.94,-6.29,0,2,6
16940,-5.48,-1.49,-6.5,0,2,6
16960,-5.34,0.32,-3.61,0,2,6
16980,-6.96,1.32,-3.11,0,2,6
17000,-6.96,1.61,-3.56,0,2,6
17020,-10.06,-0.59,-3.0,0,2,6
17040,-12.75,-3.94,-6.88,0,2,6
17060,-11.68,-7.47,-10.86,0,2,6
17080,-12.4,-13.1,-11.64,0,2,6
17100,-13.45,-12.95,-12.66,0,2,6
17120,-12.25,-7.76,-11.64,0,2,6
17140,-9.43,-0.65,-6.6,0,2,6
17160,-10.35,6.12,-2.66,0,2,6
17180,-10.16,12.49,5.7,0,2,6
17200,-5.22,14.48,10.22,0,2,6
17220,-11.67,9.98,11.41,0,2,6
17240,-15.11,6.1,4.52,0,2,6
17260,-5.14,0.59,14.34,0,2,6
17280,-2.44,-1.45,18.21,0,2,6
17300,-2.5,-0.04,19.62,0,2,6
17320,-3.1,1.01,19.62,0,2,6
17340,-2.64,1.08,19.62,0,2,6
17360,-0.76,-2.25,19.62,0,2,6
17380,-0.39,-3.51,17.5,0,2,6
17400,-1.96,0.74,14.79,0,2,6
17420,-2.18,0.46,12.61,0,2,6
17440,0.08,-2.24,9.91,0,2,6
17460,0.87,-2.28,8.62,0,2,6
17480,-0.59,-0.79,6.36,0,2,6
17500,0.3,0.67,5.44,0,2,6
17520,0.56,1.11,5.85,0,2,6
17540,-0.12,0.43,4.5,0,2,6
17560,-0.65,-1.4,3.11,0,2,6
17580,0.04,-2.4,3.07,0,2,6
17600,0.12,-3.35,3.71,0,2,6
17620,-0.17,-3.42,4.62,0,2,6
17640,-0.03,-3.65,5.72,0,2,6
17660,-1.13,-3.52,6.36,0,2,6
17680,-3.65,-3.83,7.19,0,2,6
17700,-4.39,-4.7,8.55,0,2,6
17720,-5.05,-5.48,9.32,0,2,6
17740,-5.25,-6.28,9.56,0,2,6
17760,-7.11,-6.56,9.17,0,2,6
17780,-7.95,-6.6,9.41,0,2,6
17800,-7.66,-6.56,8.27,0,2,6
17820,-7.59,-6.1,8.34,0,2,6
17840,-7.53,-5.24,7.55,0,2,6
17860,-7.46,-4.59,6.61,0,2,6
17880,-6.81,-4.15,5.96,0,2,6
17900,-6.55,-3.91,5.56,0,2,6
17920,-6.76,-3.8,5.09,0,2,6
17940,-5.93,-3.86,5.19,0,2,6
17960,-5.86,-3.34,4.88,0,2,6
17980,-5.54,-3.08,4.86,0,2,6
18000,-5.31,-2.8,5.2,0,2,6
18020,-5.15,-3.15,5.06,0,2,6
18040,-5.31,-3.52,4.84,0,2,6
18060,-5.53,-3.8,4.84,0,2,6
18080,-5.71,-4.24,5.51,0,2,6
18100,-5.39,-4.9,6.42,0,2,6
18120,-5.36,-5.56,6.67,0,2,6
18140,-5.13,-5.76,6.72,0,2,6
18160,-5.16,-5.55,6.72,0,2,6
18180,-5.08,-5.09,7.08,0,2,6
18200,-4.72,-4.67,7.67,0,2,6
18220,-4.91,-4.44,7.54,0,2,6
18240,-5.02,-4.49,7.46,0,2,6
18260,-5.03,-4.39,7.52,0,2,6
18280,-4.67,-4.15,7.62,0,2,6
18300,-4.44,-3.69,7.96,0,2,6
18320,-3.76,-3.28,8.37,0,2,6
18340,-3.98,-3.23,8.28,0,2,6
18360,-4.34,-3.59,7.86,0,2,6
18380,-4.85,-3.82,6.67,0,2,6
18400,-4.8,-3.84,6.57,0,2,6
18420,-4.48,-3.91,7.33,0,2,6
18440,-3.95,-3.9,6.9,0,2,6
18460,-4.51,-3.81,6.59,0,2,6
18480,-4.13,-3.91,6.87,0,2,6
18500,-4.65,-3.58,7.1,0,2,6
18520,-5.35,-3.09,6.9,0,2,6
18540,-5.37,-2.93,7.21,0,2,6
18560,-6.01,-3.68,6.74,0,2,6
18580,-5.56,-4.39,7.05,0,2,6
18600,-5.88,-3.95,7.34,0,2,6
18620,-6.22,-2.45,7.32,0,2,6
18640,-6.71,-1.77,7.0,0,2,6
18660,-6.39,-1.84,6.87,0,2,6
18680,-7.84,-2.32,6.56,0,2,6
18700,-7.08,-2.19,6.61,0,2,6
18720,-7.63,-0.93,6.28,0,2,6
18740,-7.75,0.16,6.37,0,2,6
18760,-7.63,0.42,6.56,0,2,6
18780,-7.17,0.27,7.33,0,2,6
18800,-7.95,0.54,6.69,0,2,6
16920,-4.5,-1.94,-6.29,0,2,7
16940,-5.48,-1.49,-6.5,0,2,7
16960,-5.34,0.32,-3.61,0,2,7
16980,-6.96,1.32,-3.11,0,2,7
17000,-6.96,1.61,-3.56,0,2,7
17020,-10.06,-0.59,-3.0,0,2,7
17040,-12.75,-3.94,-6.88,0,2,7
17060,-11.68,-7.47,-10.86,0,2,7
17080,-12.4,-13.1,-11.64,0,2,7
17100,-13.45,-12.95,-12.66,0,2,7
17120,-12.25,-7.76,-11.64,0,2,7
17140,-9.43,-0.65,-6.6,0,2,7
17160,-10.35,6.12,-2.66,0,2,7
17180,-10.16,12.49,5.7,0,2,7
17200,-5.22,14.48,10.22,0,2,7
17220,-11.67,9.98,11.41,0,2,7
17240,-15.11,6.1,4.52,0,2,7
17260,-5.14,0.59,14.34,0,2,7
17280,-2.44,-1.45,18.21,0,2,7
17300,-2.5,-0.04,19.62,0,2,7
17320,-3.1,1.01,19.62,0,2,7
17340,-2.64,1.08,19.62,0,2,7
17360,-0.76,-2.25,19.62,0,2,7
17380,-0.39,-3.51,17.5,0,2,7
17400,-1.96,0.74,14.79,0,2,7
17420,-2.18,0.46,12.61,0,2,7
17440,0.08,-2.24,9.91,0,2,7
17460,0.87,-2.28,8.62,0,2,7
17480,-0.59,-0.79,6.36,0,2,7
17500,0.3,0.67,5.44,0,2,7
17520,0.56,1.11,5.85,0,2,7
17540,-0.12,0.43,4.5,0,2,7
17560,-0.65,-1.4,3.11,0,2,7
17580,0.04,-2.4,3.07,0,2,7
17600,0.12,-3.35,3.71,0,2,7
17620,-0.17,-3.42,4.62,0,2,7
17640,-0.03,-3.65,5.72,0,2,7
17660,-1.13,-3.52,6.36,0,2,7
17680,-3.65,-3.83,7.19,0,2,7
17700,-4.39,-4.7,8.55,0,2,7
17720,-5.05,-5.48,9.32,0,2,7
17740,-5.25,-6.28,9.56,0,2,7
17760,-7.11,-6.56,9.17,0,2,7
17780,-7.95,-6.6,9.41,0,2,7
17800,-7.66,-6.56,8.27,0,2,7
17820,-7.59,-6.1,8.34,0,2,7
17840,-7.53,-5.24,7.55,0,2,7
17860,-7.46,-4.59,6.61,0,2,7
17880,-6.81,-4.15,5.96,0,2,7
17900,-6.55,-3.91,5.56,0,2,7
17920,-6.76,-3.8,5.09,0,2,7
17940,-5.93,-3.86,5.19,0,2,7
17960,-5.86,-3.34,4.88,0,2,7
17980,-5.54,-3.08,4.86,0,2,7
18000,-5.31,-2.8,5.2,0,2,7
18020,-5.15,-3.15,5.06,0,2,7
18040,-5.31,-3.52,4.84,0,2,7
18060,-5.53,-3.8,4.84,0,2,7
18080,-5.71,-4.24,5.51,0,2,7
18100,-5.39,-4.9,6.42,0,2,7
18120,-5.36,-5.56,6.67,0,2,7
18140,-5.13,-5.76,6.72,0,2,7
18160,-5.16,-5.55,6.72,0,2,7
18180,-5.08,-5.09,7.08,0,2,7
18200,-4.72,-4.67,7.67,0,2,7
18220,-4.91,-4.44,7.54,0,2,7
18240,-5.02,-4.49,7.46,0,2,7
18260,-5.03,-4.39,7.52,0,2,7
18280,-4.67,-4.15,7.62,0,2,7
18300,-4.44,-3.69,7.96,0,2,7
18320,-3.76,-3.28,8.37,0,2,7
18340,-3.98,-3.23,8.28,0,2,7
18360,-4.34,-3.59,7.86,0,2,7
18380,-4.85,-3.82,6.67,0,2,7
18400,-4.8,-3.84,6.57,0,2,7
18420,-4.48,-3.91,7.33,0,2,7
18440,-3.95,-3.9,6.9,0,2,7
18460,-4.51,-3.81,6.59,0,2,7
18480,-4.13,-3.91,6.87,0,2,7
18500,-4.65,-3.58,7.1,0,2,7
18520,-5.35,-3.09,6.9,0,2,7
18540,-5.37,-2.93,7.21,0,2,7
18560,-6.01,-3.68,6.74,0,2,7
18580,-5.56,-4.39,7.05,0,2,7
18600,-5.88,-3.95,7.34,0,2,7
18620,-6.22,-2.45,7.32,0,2,7
18640,-6.71,-1.77,7.0,0,2,7
18660,-6.39,-1.84,6.87,0,2,7
18680,-7.84,-2.32,6.56,0,2,7
18700,-7.08,-2.19,6.61,0,2,7
18720,-7.63,-0.93,6.28,0,2,7
18740,-7.75,0.16,6.37,0,2,7
18760,-7.63,0.42,6.56,0,2,7
18780,-7.17,0.27,7.33,0,2,7
18800,-7.95,0.54,6.69,0,2,7
18820,-8.69,1.21,6.67,0,2,7
18840,-9.33,0.84,7.19,0,2,7
18860,-8.82,1.08,7.22,0,2,7
18880,-8.84,1.51,6.91,0,2,7
18900,-9.13,1.26,6.55,0,2,7
17020,-10.06,-0.59,-3.0,0,2,8
17040,-12.75,-3.94,-6.88,0,2,8
17060,-11.68,-7.47,-10.86,0,2,8
17080,-12.4,-13.1,-11.64,0,2,8
17100,-13.45,-12.95,-12.66,0,2,8
17120,-12.25,-7.76,-11.64,0,2,8
17140,-9.43,-0.65,-6.6,0,2,8
17160,-10.35,6.12,-2.66,0,2,8
17180,-10.16,12.49,5.7,0,2,8
17200,-5.22,14.48,10.22,0,2,8
17220,-11.67,9.98,11.41,0,2,8
17240,-15.11,6.1,4.52,0,2,8
17260,-5.14,0.59,14.34,0,2,8
17280,-2.44,-1.45,18.21,0,2,8
17300,-2.5,-0.04,19.62,0,2,8
17320,-3.1,1.01,19.62,0,2,8
17340,-2.64,1.08,19.62,0,2,8
17360,-0.76,-2.25,19.62,0,2,8
17380,-0.39,-3.51,17.5,0,2,8
17400,-1.96,0.74,14.79,0,2,8
17420,-2.18,0.46,12.61,0,2,8
17440,0.08,-2.24,9.91,0,2,8
17460,0.87,-2.28,8.62,0,2,8
17480,-0.59,-0.79,6.36,0,2,8
17500,0.3,0.67,5.44,0,2,8
17520,0.56,1.11,5.85,0,2,8
17540,-0.12,0.43,4.5,0,2,8
17560,-0.65,-1.4,3.11,0,2,8
17580,0.04,-2.4,3.07,0,2,8
17600,0.12,-3.35,3.71,0,2,8
17620,-0.17,-3.42,4.62,0,2,8
17640,-0.03,-3.65,5.72,0,2,8
17660,-1.13,-3.52,6.36,0,2,8
17680,-3.65,-3.83,7.19,0,2,8
17700,-4.39,-4.7,8.55,0,2,8
17720,-5.05,-5.48,9.32,0,2,8
17740,-5.25,-6.28,9.56,0,2,8
17760,-7.11,-6.56,9.17,0,2,8
17780,-7.95,-6.6,9.41,0,2,8
17800,-7.66,-6.56,8.27,0,2,8
17820,-7.59,-6.1,8.34,0,2,8
17840,-7.53,-5.24,7.55,0,2,8
17860,-7.46,-4.59,6.61,0,2,8
17880,-6.81,-4.15,5.96,0,2,8
17900,-6.55,-3.91,5.56,0,2,8
17920,-6.76,-3.8,5.09,0,2,8
17940,-5.93,-3.86,5.19,0,2,8
17960,-5.86,-3.34,4.88,0,2,8
17980,-5.54,-3.08,4.86,0,2,8
18000,-5.31,-2.8,5.2,0,2,8
18020,-5.15,-3.15,5.06,0,2,8
18040,-5.31,-3.52,4.84,0,2,8
18060,-5.53,-3.8,4.84,0,2,8
18080,-5.71,-4.24,5.51,0,2,8
18100,-5.39,-4.9,6.42,0,2,8
18120,-5.36,-5.56,6.67,0,2,8
18140,-5.13,-5.76,6.72,0,2,8
18160,-5.16,-5.55,6.72,0,2,8
18180,-5.08,-5.09,7.08,0,2,8
18200,-4.72,-4.67,7.67,0,2,8
18220,-4.91,-4.44,7.54,0,2,8
18240,-5.02,-4.49,7.46,0,2,8
18260,-5.03,-4.39,7.52,0,2,8
18280,-4.67,-4.15,7.62,0,2,8
18300,-4.44,-3.69,7.96,0,2,8
18320,-3.76,-3.28,8.37,0,2,8
18340,-3.98,-3.23,8.28,0,2,8
18360,-4.34,-3.59,7.86,0,2,8
18380,-4.85,-3.82,6.67,0,2,8
18400,-4.8,-3.84,6.57,0,2,8
18420,-4.48,-3.91,7.33,0,2,8
18440,-3.95,-3.9,6.9,0,2,8
18460,-4.51,-3.81,6.59,0,2,8
18480,-4.13,-3.91,6.87,0,2,8
18500,-4.65,-3.58,7.1,0,2,8
18520,-5.35,-3.09,6.9,0,2,8
18540,-5.37,-2.93,7.21,0,2,8
18560,-6.01,-3.68,6.74,0,2,8
18580,-5.56,-4.39,7.05,0,2,8
18600,-5.88,-3.95,7.34,0,2,8
18620,-6.22,-2.45,7.32,0,2,8
18640,-6.71,-1.77,7.0,0,2,8
18660,-6.39,-1.84,6.87,0,2,8
18680,-7.84,-2.32,6.56,0,2,8
18700,-7.08,-2.19,6.61,0,2,8
18720,-7.63,-0.93,6.28,0,2,8
18740,-7.75,0.16,6.37,0,2,8
18760,-7.63,0.42,6.56,0,2,8
18780,-7.17,0.27,7.33,0,2,8
18800,-7.95,0.54,6.69,0,2,8
18820,-8.69,1.21,6.67,0,2,8
18840,-9.33,0.84,7.19,0,2,8
18860,-8.82,1.08,7.22,0,2,8
18880,-8.84,1.51,6.91,0,2,8
18900,-9.13,1.26,6.55,0,2,8
18920,-8.98,1.48,6.27,0,2,8
18940,-8.95,1.5,6.63,0,2,8
18960,-9.21,0.87,5.76,0,2,8
18980,-9.2,1.16,4.83,0,2,8
19000,-8.92,0.93,4.89,0,2,8
17120,-12.25,-7.76,-11.64,0,2,9
17140,-9.43,-0.65,-6.6,0,2,9
17160,-10.35,6.12,-2.66,0,2,9
17180,-10.16,12.49,5.7,0,2,9
17200,-5.22,14.48,10.22,0,2,9
17220,-11.67,9.98,11.41,0,2,9
17240,-15.11,6.1,4.52,0,2,9
17260,-5.14,0.59,14.34,0,2,9
17280,-2.44,-1.45,18.21,0,2,9
17300,-2.5,-0.04,19.62,0,2,9
17320,-3.1,1.01,19.62,0,2,9
17340,-2.64,1.08,19.62,0,2,9
17360,-0.76,-2.25,19.62,0,2,9
17380,-0.39,-3.51,17.5,0,2,9
17400,-1.96,0.74,14.79,0,2,9
17420,-2.18,0.46,12.61,0,2,9
17440,0.08,-2.24,9.91,0,2,9
17460,0.87,-2.28,8.62,0,2,9
17480,-0.59,-0.79,6.36,0,2,9
17500,0.3,0.67,5.44,0,2,9
17520,0.56,1.11,5.85,0,2,9
17540,-0.12,0.43,4.5,0,2,9
17560,-0.65,-1.4,3.11,0,2,9
17580,0.04,-2.4,3.07,0,2,9
17600,0.12,-3.35,3.71,0,2,9
17620,-0.17,-3.42,4.62,0,2,9
17640,-0.03,-3.65,5.72,0,2,9
17660,-1.13,-3.52,6.36,0,2,9
17680,-3.65,-3.83,7.19,0,2,9
17700,-4.39,-4.7,8.55,0,2,9
17720,-5.05,-5.48,9.32,0,2,9
17740,-5.25,-6.28,9.56,0,2,9
17760,-7.11,-6.56,9.17,0,2,9
17780,-7.95,-6.6,9.41,0,2,9
17800,-7.66,-6.56,8.27,0,2,9
17820,-7.59,-6.1,8.34,0,2,9
17840,-7.53,-5.24,7.55,0,2,9
17860,-7.46,-4.59,6.61,0,2,9
17880,-6.81,-4.15,5.96,0,2,9
17900,-6.55,-3.91,5.56,0,2,9
17920,-6.76,-3.8,5.09,0,2,9
17940,-5.93,-3.86,5.19,0,2,9
17960,-5.86,-3.34,4.88,0,2,9
17980,-5.54,-3.08,4.86,0,2,9
18000,-5.31,-2.8,5.2,0,2,9
18020,-5.15,-3.15,5.06,0,2,9
18040,-5.31,-3.52,4.84,0,2,9
18060,-5.53,-3.8,4.84,0,2,9
18080,-5.71,-4.24,5.51,0,2,9
18100,-5.39,-4.9,6.42,0,2,9
18120,-5.36,-5.56,6.67,0,2,9
18140,-5.13,-5.76,6.72,0,2,9
18160,-5.16,-5.55,6.72,0,2,9
18180,-5.08,-5.09,7.08,0,2,9
18200,-4.72,-4.67,7.67,0,2,9
18220,-4.91,-4.44,7.54,0,2,9
18240,-5.02,-4.49,7.46,0,2,9
18260,-5.03,-4.39,7.52,0,2,9
18280,-4.67,-4.15,7.62,0,2,9
18300,-4.44,-3.69,7.96,0,2,9
18320,-3.76,-3.28,8.37,0,2,9
18340,-3.98,-3.23,8.28,0,2,9
18360,-4.34,-3.59,7.86,0,2,9
18380,-4.85,-3.82,6.67,0,2,9
18400,-4.8,-3.84,6.57,0,2,9
18420,-4.48,-3.91,7.33,0,2,9
18440,-3.95,-3.9,6.9,0,2,9
18460,-4.51,-3.81,6.59,0,2,9
18480,-4.13,-3.91,6.87,0,2,9
18500,-4.65,-3.58,7.1,0,2,9
18520,-5.35,-3.09,6.9,0,2,9
18540,-5.37,-2.93,7.21,0,2,9
18560,-6.01,-3.68,6.74,0,2,9
18580,-5.56,-4.39,7.05,0,2,9
18600,-5.88,-3.95,7.34,0,2,9
18620,-6.22,-2.45,7.32,0,2,9
18640,-6.71,-1.77,7.0,0,2,9
18660,-6.39,-1.84,6.87,0,2,9
18680,-7.84,-2.32,6.56,0,2,9
18700,-7.08,-2.19,6.61,0,2,9
18720,-7.63,-0.93,6.28,0,2,9
18740,-7.75,0.16,6.37,0,2,9
18760,-7.63,0.42,6.56,0,2,9
18780,-7.17,0.27,7.33,0,2,9
18800,-7.95,0.54,6.69,0,2,9
18820,-8.69,1.21,6.67,0,2,9
18840,-9.33,0.84,7.19,0,2,9
18860,-8.82,1.08,7.22,0,2,9
18880,-8.84,1.51,6.91,0,2,9
18900,-9.13,1.26,6.55,0,2,9
18920,-8.98,1.48,6.27,0,2,9
18940,-8.95,1.5,6.63,0,2,9
18960,-9.21,0.87,5.76,0,2,9
18980,-9.2,1.16,4.83,0,2,9
19000,-8.92,0.93,4.89,0,2,9
19020,-8.31,0.97,4.56,0,2,9
19040,-8.75,0.64,4.04,0,2,9
19060,-8.81,-0.72,3.44,0,2,9
19080,-8.26,-1.87,3.09,0,2,9
19100,-7.73,-2.32,2.63,0,2,9
17220,-11.67,9.98,11.41,0,2,10
17240,-15.11,6.1,4.52,0,2,10
17260,-5.14,0.59,14.34,0,2,10
17280,-2.44,-1.45,18.21,0,2,10
17300,-2.5,-0.04,19.62,0,2,10
17320,-3.1,1.01,19.62,0,2,10
17340,-2.64,1.08,19.62,0,2,10
17360,-0.76,-2.25,19.62,0,2,10
17380,-0.39,-3.51,17.5,0,2,10
17400,-1.96,0.74,14.79,0,2,10
17420,-2.18,0.46,12.61,0,2,10
17440,0.08,-2.24,9.91,0,2,10
17460,0.87,-2.28,8.62,0,2,10
17480,-0.59,-0.79,6.36,0,2,10
17500,0.3,0.67,5.44,0,2,10
17520,0.56,1.11,5.85,0,2,10
17540,-0.12,0.43,4.5,0,2,10
17560,-0.65,-1.4,3.11,0,2,10
17580,0.04,-2.4,3.07,0,2,10
17600,0.12,-3.35,3.71,0,2,10
17620,-0.17,-3.42,4.62,0,2,10
17640,-0.03,-3.65,5.72,0,2,10
17660,-1.13,-3.52,6.36,0,2,10
17680,-3.65,-3.83,7.19,0,2,10
17700,-4.39,-4.7,8.55,0,2,10
17720,-5.05,-5.48,9.32,0,2,10
17740,-5.25,-6.28,9.56,0,2,10
17760,-7.11,-6.56,9.17,0,2,10
17780,-7.95,-6.6,9.41,0,2,10
17800,-7.66,-6.56,8.27,0,2,10
17820,-7.59,-6.1,8.34,0,2,10
17840,-7.53,-5.24,7.55,0,2,10
17860,-7.46,-4.59,6.61,0,2,10
17880,-6.81,-4.15,5.96,0,2,10
17900,-6.55,-3.91,5.56,0,2,10
17920,-6.76,-3.8,5.09,0,2,10
17940,-5.93,-3.86,5.19,0,2,10
17960,-5.86,-3.34,4.88,0,2,10
17980,-5.54,-3.08,4.86,0,2,10
18000,-5.31,-2.8,5.2,0,2,10
18020,-5.15,-3.15,5.06,0,2,10
18040,-5.31,-3.52,4.84,0,2,10
18060,-5.53,-3.8,4.84,0,2,10
18080,-5.71,-4.24,5.51,0,2,10
18100,-5.39,-4.9,6.42,0,2,10
18120,-5.36,-5.56,6.67,0,2,10
18140,-5.13,-5.76,6.72,0,2,10
18160,-5.16,-5.55,6.72,0,2,10
18180,-5.08,-5.09,7.08,0,2,10
18200,-4.72,-4.67,7.67,0,2,10
18220,-4.91,-4.44,7.54,0,2,10
18240,-5.02,-4.49,7.46,0,2,10
18260,-5.03,-4.39,7.52,0,2,10
18280,-4.67,-4.15,7.62,0,2,10
18300,-4.44,-3.69,7.96,0,2,10
18320,-3.76,-3.28,8.37,0,2,10
18340,-3.98,-3.23,8.28,0,2,10
18360,-4.34,-3.59,7.86,0,2,10
18380,-4.85,-3.82,6.67,0,2,10
18400,-4.8,-3.84,6.57,0,2,10
18420,-4.48,-3.91,7.33,0,2,10
18440,-3.95,-3.9,6.9,0,2,10
18460,-4.51,-3.81,6.59,0,2,10
18480,-4.13,-3.91,6.87,0,2,10
18500,-4.65,-3.58,7.1,0,2,10
18520,-5.35,-3.09,6.9,0,2,10
18540,-5.37,-2.93,7.21,0,2,10
18560,-6.01,-3.68,6.74,0,2,10
18580,-5.56,-4.39,7.05,0,2,10
18600,-5.88,-3.95,7.34,0,2,10
18620,-6.22,-2.45,7.32,0,2,10
18640,-6.71,-1.77,7.0,0,2,10
18660,-6.39,-1.84,6.87,0,2,10
18680,-7.84,-2.32,6.56,0,2,10
18700,-7.08,-2.19,6.61,0,2,10
18720,-7.63,-0.93,6.28,0,2,10
18740,-7.75,0.16,6.37,0,2,10
18760,-7.63,0.42,6.56,0,2,10
18780,-7.17,0.27,7.33,0,2,10
18800,-7.95,0.54,6.69,0,2,10
18820,-8.69,1.21,6.67,0,2,10
18840,-9.33,0.84,7.19,0,2,10
18860,-8.82,1.08,7.22,0,2,10
18880,-8.84,1.51,6.91,0,2,10
18900,-9.13,1.26,6.55,0,2,10
18920,-8.98,1.48,6.27,0,2,10
18940,-8.95,1.5,6.63,0,2,10
18960,-9.21,0.87,5.76,0,2,10
18980,-9.2,1.16,4.83,0,2,10
19000,-8.92,0.93,4.89,0,2,10
19020,-8.31,0.97,4.56,0,2,10
19040,-8.75,0.64,4.04,0,2,10
19060,-8.81,-0.72,3.44,0,2,10
19080,-8.26,-1.87,3.09,0,2,10
19100,-7.73,-2.32,2.63,0,2,10
19120,-7.7,-3.54,2.66,0,2,10
19140,-9.54,-4.43,1.93,0,2,10
19160,-10.12,-4.79,1.29,0,2,10
19180,-9.95,-3.79,1.42,0,2,10
19200,-9.67,-2.79,1.9,0,2,10
27100,-7.32,-2.79,-4.22,1,3,1
27120,-7.42,-3.11,-3.96,1,3,1
27140,-7.78,-1.15,-3.02,1,3,1
27160,-7.43,-0.38,-1.66,1,3,1
27180,-7.42,-0.21,-0.9,1,3,1
27200,-6.67,0.62,-1.02,0,3,1
27220,-5.03,-0.2,-2.04,0,3,1
27240,-3.97,-3.85,-3.02,0,3,1
27260,-3.43,-5.37,-3.53,0,3,1
27280,-7.04,-6.18,-9.18,0,3,1
27300,-7.75,-5.44,-7.32,0,3,1
27320,-6.61,-4.16,-3.61,0,3,1
27340,-6.55,-2.22,-4.36,0,3,1
27360,-8.5,-1.13,-4.64,0,3,1
27380,-9.5,-0.55,-4.09,0,3,1
27400,-9.11,-3.03,-5.04,0,3,1
27420,-7.44,-5.53,-5.62,0,3,1
27440,-6.66,-4.55,-4.93,0,3,1
27460,-9.65,-2.05,-4.13,0,3,1
27480,-12.23,-2.23,-3.78,0,3,1
27500,-11.11,-4.0,-5.11,0,3,1
27520,-10.4,-6.5,-6.11,0,3,1
27540,-11.69,-7.29,-5.96,0,3,1
27560,-14.65,-5.59,-4.34,0,3,1
27580,-19.62,-15.94,1.37,0,3,1
27600,-10.71,-3.14,1.02,0,3,1
27620,-6.55,-1.99,3.51,0,3,1
27640,-8.47,-10.16,-1.76,0,3,1
27660,-8.58,-7.89,-6.12,0,3,1
27680,-6.16,-4.57,-0.8,0,3,1
27700,-1.93,-4.46,4.46,0,3,1
27720,8.77,-11.61,6.39,0,3,1
27740,8.05,-6.56,0.92,0,3,1
27760,4.63,-7.36,1.97,0,3,1
27780,6.98,-10.91,6.35,0,3,1
27800,5.3,-13.41,0.22,0,3,1
27820,8.26,-12.24,0.53,0,3,1
27840,7.65,-10.9,3.58,0,3,1
27860,7.44,-12.21,4.26,0,3,1
27880,6.69,-13.23,1.83,0,3,1
27900,5.85,-11.45,2.27,0,3,1
27920,5.25,-10.52,1.06,0,3,1
27940,5.45,-10.4,2.08,0,3,1
27960,4.24,-10.3,0.36,0,3,1
27980,3.77,-10.08,-0.45,0,3,1
28000,2.46,-9.24,-0.85,0,3,1
28020,2.66,-9.49,-0.63,0,3,1
28040,1.28,-8.62,-0.8,0,3,1
28060,0.82,-8.84,-1.05,0,3,1
28080,1.37,-9.94,-0.69,0,3,1
28100,1.17,-10.08,-2.03,0,3,1
28120,1.53,-9.7,-1.31,0,3,1
28140,1.48,-9.62,-1.11,0,3,1
28160,1.14,-8.77,-1.11,0,3,1
28180,0.88,-9.31,-1.84,0,3,1
28200,0.93,-9.59,-2.04,0,3,1
28220,1.13,-9.71,-2.23,0,3,1
28240,1.14,-9.7,-2.12,0,3,1
28260,1.45,-9.49,-2.01,0,3,1
28280,1.48,-9.38,-2.24,0,3,1
28300,2.05,-10.77,-3.21,0,3,1
28320,3.34,-11.71,-3.52,0,3,1
28340,1.42,-10.88,-4.92,0,3,1
28360,2.12,-8.9,-3.68,0,3,1
28380,2.21,-7.58,-2.61,0,3,1
28400,1.01,-7.31,-3.23,0,3,1
28420,1.78,-8.67,-3.09,0,3,1
28440,2.1,-9.98,-3.71,0,3,1
28460,2.26,-10.09,-4.26,0,3,1
28480,2.15,-9.54,-4.21,0,3,1
28500,2.13,-8.8,-3.66,0,3,1
28520,2.4,-8.52,-3.18,0,3,1
28540,2.4,-8.82,-3.3,0,3,1
28560,2.17,-9.41,-3.63,0,3,1
28580,2.14,-9.51,-3.54,0,3,1
28600,2.25,-9.24,-3.31,0,3,1
28620,2.09,-8.98,-3.35,0,3,1
28640,1.9,-8.88,-3.33,0,3,1
28660,1.97,-9.02,-3.33,0,3,1
28680,1.83,-9.07,-3.14,0,3,1
28700,1.9,-9.22,-3.23,0,3,1
28720,1.85,-9.34,-3.39,0,3,1
28740,2.04,-9.31,-3.18,0,3,1
28760,1.94,-9.14,-3.01,0,3,1
28780,2.03,-9.13,-3.02,0,3,1
28800,1.93,-9.26,-3.16,0,3,1
28820,1.87,-9.29,-3.29,0,3,1
28840,1.84,-9.32,-3.3,0,3,1
28860,1.99,-9.22,-3.14,0,3,1
28880,1.96,-9.23,-3.1,0,3,1
28900,1.88,-9.32,-3.16,0,3,1
28920,1.92,-9.23,-3.19,0,3,1
28940,1.97,-9.19,-2.89,0,3,1
28960,1.95,-9.18,-3.15,0,3,1
28980,1.96,-9.28,-3.12,0,3,1
29000,1.99,-9.29,-3.05,0,3,1
29020,1.97,-9.19,-3.12,0,3,1
29040,2.0,-9.26,-3.1,0,3,1
29060,1.89,-9.21,-3.34,0,3,1
29080,2.02,-9.26,-2.98,0,3,1
27200,-6.67,0.62,-1.02,0,3,2
27220,-5.03,-0.2,-2.04,0,3,2
27240,-3.97,-3.85,-3.02,0,3,2
27260,-3.43,-5.37,-3.53,0,3,2
27280,-7.04,-6.18,-9.18,0,3,2
27300,-7.75,-5.44,-7.32,0,3,2
27320,-6.61,-4.16,-3.61,0,3,2
27340,-6.55,-2.22,-4.36,0,3,2
27360,-8.5,-1.13,-4.64,0,3,2
27380,-9.5,-0.55,-4.09,0,3,2
27400,-9.11,-3.03,-5.04,0,3,2
27420,-7.44,-5.53,-5.62,0,3,2
27440,-6.66,-4.55,-4.93,0,3,2
27460,-9.65,-2.05,-4.13,0,3,2
27480,-12.23,-2.23,-3.78,0,3,2
27500,-11.11,-4.0,-5.11,0,3,2
27520,-10.4,-6.5,-6.11,0,3,2
27540,-11.69,-7.29,-5.96,0,3,2
27560,-14.65,-5.59,-4.34,0,3,2
27580,-19.62,-15.94,1.37,0,3,2
27600,-10.71,-3.14,1.02,0,3,2
27620,-6.55,-1.99,3.51,0,3,2
27640,-8.47,-10.16,-1.76,0,3,2
27660,-8.58,-7.89,-6.12,0,3,2
27680,-6.16,-4.57,-0.8,0,3,2
27700,-1.93,-4.46,4.46,0,3,2
27720,8.77,-11.61,6.39,0,3,2
27740,8.05,-6.56,0.92,0,3,2
27760,4.63,-7.36,1.97,0,3,2
27780,6.98,-10.91,6.35,0,3,2
27800,5.3,-13.41,0.22,0,3,2
27820,8.26,-12.24,0.53,0,3,2
27840,7.65,-10.9,3.58,0,3,2
27860,7.44,-12.21,4.26,0,3,2
27880,6.69,-13.23,1.83,0,3,2
27900,5.85,-11.45,2.27,0,3,2
27920,5.25,-10.52,1.06,0,3,2
27940,5.45,-10.4,2.08,0,3,2
27960,4.24,-10.3,0.36,0,3,2
27980,3.77,-10.08,-0.45,0,3,2
28000,2.46,-9.24,-0.85,0,3,2
28020,2.66,-9.49,-0.63,0,3,2
28040,1.28,-8.62,-0.8,0,3,2
28060,0.82,-8.84,-1.05,0,3,2
28080,1.37,-9.94,-0.69,0,3,2
28100,1.17,-10.08,-2.03,0,3,2
28120,1.53,-9.7,-1.31,0,3,2
28140,1.48,-9.62,-1.11,0,3,2
28160,1.14,-8.77,-1.11,0,3,2
28180,0.88,-9.31,-1.84,0,3,2
28200,0.93,-9.59,-2.04,0,3,2
28220,1.13,-9.71,-2.23,0,3,2
28240,1.14,-9.7,-2.12,0,3,2
28260,1.45,-9.49,-2.01,0,3,2
28280,1.48,-9.38,-2.24,0,3,2
28300,2.05,-10.77,-3.21,0,3,2
28320,3.34,-11.71,-3.52,0,3,2
28340,1.42,-10.88,-4.92,0,3,2
28360,2.12,-8.9,-3.68,0,3,2
28380,2.21,-7.58,-2.61,0,3,2
28400,1.01,-7.31,-3.23,0,3,2
28420,1.78,-8.67,-3.09,0,3,2
28440,2.1,-9.98,-3.71,0,3,2
28460,2.26,-10.09,-4.26,0,3,2
28480,2.15,-9.54,-4.21,0,3,2
28500,2.13,-8.8,-3.66,0,3,2
28520,2.4,-8.52,-3.18,0,3,2
28540,2.4,-8.82,-3.3,0,3,2
28560,2.17,-9.41,-3.63,0,3,2
28580,2.14,-9.51,-3.54,0,3,2
28600,2.25,-9.24,-3.31,0,3,2
28620,2.09,-8.98,-3.35,0,3,2
28640,1.9,-8.88,-3.33,0,3,2
28660,1.97,-9.02,-3.33,0,3,2
28680,1.83,-9.07,-3.14,0,3,2
28700,1.9,-9.22,-3.23,0,3,2
28720,1.85,-9.34,-3.39,0,3,2
28740,2.04,-9.31,-3.18,0,3,2
28760,1.94,-9.14,-3.01,0,3,2
28780,2.03,-9.13,-3.02,0,3,2
28800,1.93,-9.26,-3.16,0,3,2
28820,1.87,-9.29,-3.29,0,3,2
28840,1.84,-9.32,-3.3,0,3,2
28860,1.99,-9.22,-3.14,0,3,2
28880,1.96,-9.23,-3.1,0,3,2
28900,1.88,-9.32,-3.16,0,3,2
28920,1.92,-9.23,-3.19,0,3,2
28940,1.97,-9.19,-2.89,0,3,2
28960,1.95,-9.18,-3.15,0,3,2
28980,1.96,-9.28,-3.12,0,3,2
29000,1.99,-9.29,-3.05,0,3,2
29020,1.97,-9.19,-3.12,0,3,2
29040,2.0,-9.26,-3.1,0,3,2
29060,1.89,-9.21,-3.34,0,3,2
29080,2.02,-9.26,-2.98,0,3,2
29100,2.05,-9.33,-3.02,0,3,2
29120,1.94,-9.21,-3.02,0,3,2
29140,2.07,-9.24,-2.97,0,3,2
29160,2.05,-9.22,-3.05,0,3,2
29180,2.07,-9.24,-3.06,0,3,2
27300,-7.75,-5.44,-7.32,0,3,3
27320,-6.61,-4.16,-3.61,0,3,3
27340,-6.55,-2.22,-4.36,0,3,3
27360,-8.5,-1.13,-4.64,0,3,3
27380,-9.5,-0.55,-4.09,0,3,3
27400,-9.11,-3.03,-5.04,0,3,3
27420,-7.44,-5.53,-5.62,0,3,3
27440,-6.66,-4.55,-4.93,0,3,3
27460,-9.65,-2.05,-4.13,0,3,3
27480,-12.23,-2.23,-3.78,0,3,3
27500,-11.11,-4.0,-5.11,0,3,3
27520,-10.4,-6.5,-6.11,0,3,3
27540,-11.69,-7.29,-5.96,0,3,3
27560,-14.65,-5.59,-4.34,0,3,3
27580,-19.62,-15.94,1.37,0,3,3
27600,-10.71,-3.14,1.02,0,3,3
27620,-6.55,-1.99,3.51,0,3,3
27640,-8.47,-10.16,-1.76,0,3,3
27660,-8.58,-7.89,-6.12,0,3,3
27680,-6.16,-4.57,-0.8,0,3,3
27700,-1.93,-4.46,4.46,0,3,3
27720,8.77,-11.61,6.39,0,3,3
27740,8.05,-6.56,0.92,0,3,3
27760,4.63,-7.36,1.97,0,3,3
27780,6.98,-10.91,6.35,0,3,3
27800,5.3,-13.41,0.22,0,3,3
27820,8.26,-12.24,0.53,0,3,3
27840,7.65,-10.9,3.58,0,3,3
27860,7.44,-12.21,4.26,0,3,3
27880,6.69,-13.23,1.83,0,3,3
27900,5.85,-11.45,2.27,0,3,3
27920,5.25,-10.52,1.06,0,3,3
27940,5.45,-10.4,2.08,0,3,3
27960,4.24,-10.3,0.36,0,3,3
27980,3.77,-10.08,-0.45,0,3,3
28000,2.46,-9.24,-0.85,0,3,3
28020,2.66,-9.49,-0.63,0,3,3
28040,1.28,-8.62,-0.8,0,3,3
28060,0.82,-8.84,-1.05,0,3,3
28080,1.37,-9.94,-0.69,0,3,3
28100,1.17,-10.08,-2.03,0,3,3
28120,1.53,-9.7,-1.31,0,3,3
28140,1.48,-9.62,-1.11,0,3,3
28160,1.14,-8.77,-1.11,0,3,3
28180,0.88,-9.31,-1.84,0,3,3
28200,0.93,-9.59,-2.04,0,3,3
28220,1.13,-9.71,-2.23,0,3,3
28240,1.14,-9.7,-2.12,0,3,3
28260,1.45,-9.49,-2.01,0,3,3
28280,1.48,-9.38,-2.24,0,3,3
28300,2.05,-10.77,-3.21,0,3,3
28320,3.34,-11.71,-3.52,0,3,3
28340,1.42,-10.88,-4.92,0,3,3
28360,2.12,-8.9,-3.68,0,3,3
28380,2.21,-7.58,-2.61,0,3,3
28400,1.01,-7.31,-3.23,0,3,3
28420,1.78,-8.67,-3.09,0,3,3
28440,2.1,-9.98,-3.71,0,3,3
28460,2.26,-10.09,-4.26,0,3,3
28480,2.15,-9.54,-4.21,0,3,3
28500,2.13,-8.8,-3.66,0,3,3
28520,2.4,-8.52,-3.18,0,3,3
28540,2.4,-8.82,-3.3,0,3,3
28560,2.17,-9.41,-3.63,0,3,3
28580,2.14,-9.51,-3.54,0,3,3
28600,2.25,-9.24,-3.31,0,3,3
28620,2.09,-8.98,-3.35,0,3,3
28640,1.9,-8.88,-3.33,0,3,3
28660,1.97,-9.02,-3.33,0,3,3
28680,1.83,-9.07,-3.14,0,3,3
28700,1.9,-9.22,-3.23,0,3,3
28720,1.85,-9.34,-3.39,0,3,3
28740,2.04,-9.31,-3.18,0,3,3
28760,1.94,-9.14,-3.01,0,3,3
28780,2.03,-9.13,-3.02,0,3,3
28800,1.93,-9.26,-3.16,0,3,3
28820,1.87,-9.29,-3.29,0,3,3
28840,1.84,-9.32,-3.3,0,3,3
28860,1.99,-9.22,-3.14,0,3,3
28880,1.96,-9.23,-3.1,0,3,3
28900,1.88,-9.32,-3.16,0,3,3
28920,1.92,-9.23,-3.19,0,3,3
28940,1.97,-9.19,-2.89,0,3,3
28960,1.95,-9.18,-3.15,0,3,3
28980,1.96,-9.28,-3.12,0,3,3
29000,1.99,-9.29,-3.05,0,3,3
29020,1.97,-9.19,-3.12,0,3,3
29040,2.0,-9.26,-3.1,0,3,3
29060,1.89,-9.21,-3.34,0,3,3
29080,2.02,-9.26,-2.98,0,3,3
29100,2.05,-9.33,-3.02,0,3,3
29120,1.94,-9.21,-3.02,0,3,3
29140,2.07,-9.24,-2.97,0,3,3
29160,2.05,-9.22,-3.05,0,3,3
29180,2.07,-9.24,-3.06,0,3,3
29200,1.97,-9.21,-3.09,0,3,3
29220,2.04,-9.29,-3.14,0,3,3
29240,1.99,-9.24,-3.09,0,3,3
29260,2.03,-9.16,-3.04,0,3,3
29280,2.01,-9.13,-3.11,0,3,3
27400,-9.11,-3.03,-5.04,0,3,4
27420,-7.44,-5.53,-5.62,0,3,4
27440,-6.66,-4.55,-4.93,0,3,4
27460,-9.65,-2.05,-4.13,0,3,4
27480,-12.23,-2.23,-3.78,0,3,4
27500,-11.11,-4.0,-5.11,0,3,4
27520,-10.4,-6.5,-6.11,0,3,4
27540,-11.69,-7.29,-5.96,0,3,4
27560,-14.65,-5.59,-4.34,0,3,4
27580,-19.62,-15.94,1.37,0,3,4
27600,-10.71,-3.14,1.02,0,3,4
27620,-6.55,-1.99,3.51,0,3,4
27640,-8.47,-10.16,-1.76,0,3,4
27660,-8.58,-7.89,-6.12,0,3,4
27680,-6.16,-4.57,-0.8,0,3,4
27700,-1.93,-4.46,4.46,0,3,4
27720,8.77,-11.61,6.39,0,3,4
27740,8.05,-6.56,0.92,0,3,4
27760,4.63,-7.36,1.97,0,3,4
27780,6.98,-10.91,6.35,0,3,4
27800,5.3,-13.41,0.22,0,3,4
27820,8.26,-12.24,0.53,0,3,4
27840,7.65,-10.9,3.58,0,3,4
27860,7.44,-12.21,4.26,0,3,4
27880,6.69,-13.23,1.83,0,3,4
27900,5.85,-11.45,2.27,0,3,4
27920,5.25,-10.52,1.06,0,3,4
27940,5.45,-10.4,2.08,0,3,4
27960,4.24,-10.3,0.36,0,3,4
27980,3.77,-10.08,-0.45,0,3,4
28000,2.46,-9.24,-0.85,0,3,4
28020,2.66,-9.49,-0.63,0,3,4
28040,1.28,-8.62,-0.8,0,3,4
28060,0.82,-8.84,-1.05,0,3,4
28080,1.37,-9.94,-0.69,0,3,4
28100,1.17,-10.08,-2.03,0,3,4
28120,1.53,-9.7,-1.31,0,3,4
28140,1.48,-9.62,-1.11,0,3,4
28160,1.14,-8.77,-1.11,0,3,4
28180,0.88,-9.31,-1.84,0,3,4
28200,0.93,-9.59,-2.04,0,3,4
28220,1.13,-9.71,-2.23,0,3,4
28240,1.14,-9.7,-2.12,0,3,4
28260,1.45,-9.49,-2.01,0,3,4
28280,1.48,-9.38,-2.24,0,3,4
28300,2.05,-10.77,-3.21,0,3,4
28320,3.34,-11.71,-3.52,0,3,4
28340,1.42,-10.88,-4.92,0,3,4
28360,2.12,-8.9,-3.68,0,3,4
28380,2.21,-7.58,-2.61,0,3,4
28400,1.01,-7.31,-3.23,0,3,4
28420,1.78,-8.67,-3.09,0,3,4
28440,2.1,-9.98,-3.71,0,3,4
28460,2.26,-10.09,-4.26,0,3,4
28480,2.15,-9.54,-4.21,0,3,4
28500,2.13,-8.8,-3.66,0,3,4
28520,2.4,-8.52,-3.18,0,3,4
28540,2.4,-8.82,-3.3,0,3,4
28560,2.17,-9.41,-3.63,0,3,4
28580,2.14,-9.51,-3.54,0,3,4
28600,2.25,-9.24,-3.31,0,3,4
28620,2.09,-8.98,-3.35,0,3,4
28640,1.9,-8.88,-3.33,0,3,4
28660,1.97,-9.02,-3.33,0,3,4
28680,1.83,-9.07,-3.14,0,3,4
28700,1.9,-9.22,-3.23,0,3,4
28720,1.85,-9.34,-3.39,0,3,4
28740,2.04,-9.31,-3.18,0,3,4
28760,1.94,-9.14,-3.01,0,3,4
28780,2.03,-9.13,-3.02,0,3,4
28800,1.93,-9.26,-3.16,0,3,4
28820,1.87,-9.29,-3.29,0,3,4
28840,1.84,-9.32,-3.3,0,3,4
28860,1.99,-9.22,-3.14,0,3,4
28880,1.96,-9.23,-3.1,0,3,4
28900,1.88,-9.32,-3.16,0,3,4
28920,1.92,-9.23,-3.19,0,3,4
28940,1.97,-9.19,-2.89,0,3,4
28960,1.95,-9.18,-3.15,0,3,4
28980,1.96,-9.28,-3.12,0,3,4
29000,1.99,-9.29,-3.05,0,3,4
29020,1.97,-9.19,-3.12,0,3,4
29040,2.0,-9.26,-3.1,0,3,4
29060,1.89,-9.21,-3.34,0,3,4
29080,2.02,-9.26,-2.98,0,3,4
29100,2.05,-9.33,-3.02,0,3,4
29120,1.94,-9.21,-3.02,0,3,4
29140,2.07,-9.24,-2.97,0,3,4
29160,2.05,-9.22,-3.05,0,3,4
29180,2.07,-9.24,-3.06,0,3,4
29200,1.97,-9.21,-3.09,0,3,4
29220,2.04,-9.29,-3.14,0,3,4
29240,1.99,-9.24,-3.09,0,3,4
29260,2.03,-9.16,-3.04,0,3,4
29280,2.01,-9.13,-3.11,0,3,4
29300,1.96,-9.35,-3.15,0,3,4
29320,2.06,-9.38,-2.89,0,3,4
29340,1.91,-9.25,-3.04,0,3,4
29360,1.93,-9.2,-3.21,0,3,4
29380,2.02,-9.28,-3.08,0,3,4
27500,-11.11,-4.0,-5.11,0,3,5
27520,-10.4,-6.5,-6.11,0,3,5
27540,-11.69,-7.29,-5.96,0,3,5
27560,-14.65,-5.59,-4.34,0,3,5
27580,-19.62,-15.94,1.37,0,3,5
27600,-10.71,-3.14,1.02,0,3,5
27620,-6.55,-1.99,3.51,0,3,5
27640,-8.47,-10.16,-1.76,0,3,5
27660,-8.58,-7.89,-6.12,0,3,5
27680,-6.16,-4.57,-0.8,0,3,5
27700,-1.93,-4.46,4.46,0,3,5
27720,8.77,-11.61,6.39,0,3,5
27740,8.05,-6.56,0.92,0,3,5
27760,4.63,-7.36,1.97,0,3,5
27780,6.98,-10.91,6.35,0,3,5
27800,5.3,-13.41,0.22,0,3,5
27820,8.26,-12.24,0.53,0,3,5
27840,7.65,-10.9,3.58,0,3,5
27860,7.44,-12.21,4.26,0,3,5
27880,6.69,-13.23,1.83,0,3,5
27900,5.85,-11.45,2.27,0,3,5
27920,5.25,-10.52,1.06,0,3,5
27940,5.45,-10.4,2.08,0,3,5
27960,4.24,-10.3,0.36,0,3,5
27980,3.77,-10.08,-0.45,0,3,5
28000,2.46,-9.24,-0.85,0,3,5
28020,2.66,-9.49,-0.63,0,3,5
28040,1.28,-8.62,-0.8,0,3,5
28060,0.82,-8.84,-1.05,0,3,5
28080,1.37,-9.94,-0.69,0,3,5
28100,1.17,-10.08,-2.03,0,3,5
28120,1.53,-9.7,-1.31,0,3,5
28140,1.48,-9.62,-1.11,0,3,5
28160,1.14,-8.77,-1.11,0,3,5
28180,0.88,-9.31,-1.84,0,3,5
28200,0.93,-9.59,-2.04,0,3,5
28220,1.13,-9.71,-2.23,0,3,5
28240,1.14,-9.7,-2.12,0,3,5
28260,1.45,-9.49,-2.01,0,3,5
28280,1.48,-9.38,-2.24,0,3,5
28300,2.05,-10.77,-3.21,0,3,5
28320,3.34,-11.71,-3.52,0,3,5
28340,1.42,-10.88,-4.92,0,3,5
28360,2.12,-8.9,-3.68,0,3,5
28380,2.21,-7.58,-2.61,0,3,5
28400,1.01,-7.31,-3.23,0,3,5
28420,1.78,-8.67,-3.09,0,3,5
28440,2.1,-9.98,-3.71,0,3,5
28460,2.26,-10.09,-4.26,0,3,5
28480,2.15,-9.54,-4.21,0,3,5
28500,2.13,-8.8,-3.66,0,3,5
28520,2.4,-8.52,-3.18,0,3,5
28540,2.4,-8.82,-3.3,0,3,5
28560,2.17,-9.41,-3.63,0,3,5
28580,2.14,-9.51,-3.54,0,3,5
28600,2.25,-9.24,-3.31,0,3,5
28620,2.09,-8.98,-3.35,0,3,5
28640,1.9,-8.88,-3.33,0,3,5
28660,1.97,-9.02,-3.33,0,3,5
28680,1.83,-9.07,-3.14,0,3,5
28700,1.9,-9.22,-3.23,0,3,5
28720,1.85,-9.34,-3.39,0,3,5
28740,2.04,-9.31,-3.18,0,3,5
28760,1.94,-9.14,-3.01,0,3,5
28780,2.03,-9.13,-3.02,0,3,5
28800,1.93,-9.26,-3.16,0,3,5
28820,1.87,-9.29,-3.29,0,3,5
28840,1.84,-9.32,-3.3,0,3,5
28860,1.99,-9.22,-3.14,0,3,5
28880,1.96,-9.23,-3.1,0,3,5
28900,1.88,-9.32,-3.16,0,3,5
28920,1.92,-9.23,-3.19,0,3,5
28940,1.97,-9.19,-2.89,0,3,5
28960,1.95,-9.18,-3.15,0,3,5
28980,1.96,-9.28,-3.12,0,3,5
29000,1.99,-9.29,-3.05,0,3,5
29020,1.97,-9.19,-3.12,0,3,5
29040,2.0,-9.26,-3.1,0,3,5
29060,1.89,-9.21,-3.34,0,3,5
29080,2.02,-9.26,-2.98,0,3,5
29100,2.05,-9.33,-3.02,0,3,5
29120,1.94,-9.21,-3.02,0,3,5
29140,2.07,-9.24,-2.97,0,3,5
29160,2.05,-9.22,-3.05,0,3,5
29180,2.07,-9.24,-3.06,0,3,5
29200,1.97,-9.21,-3.09,0,3,5
29220,2.04,-9.29,-3.14,0,3,5
29240,1.99,-9.24,-3.09,0,3,5
29260,2.03,-9.16,-3.04,0,3,5
29280,2.01,-9.13,-3.11,0,3,5
29300,1.96,-9.35,-3.15,0,3,5
29320,2.06,-9.38,-2.89,0,3,5
29340,1.91,-9.25,-3.04,0,3,5
29360,1.93,-9.2,-3.21,0,3,5
29380,2.02,-9.28,-3.08,0,3,5
29400,2.05,-9.33,-3.02,0,3,5
29420,1.98,-9.28,-3.06,0,3,5
29440,1.85,-9.22,-3.22,0,3,5
29460,1.93,-9.22,-3.13,0,3,5
29480,1.95,-9.23,-3.0,0,3,5
27600,-10.71,-3.14,1.02,0,3,6
27620,-6.55,-1.99,3.51,0,3,6
27640,-8.47,-10.16,-1.76,0,3,6
27660,-8.58,-7.89,-6.12,0,3,6
27680,-6.16,-4.57,-0.8,0,3,6
27700,-1.93,-4.46,4.46,0,3,6
27720,8.77,-11.61,6.39,0,3,6
27740,8.05,-6.56,0.92,0,3,6
27760,4.63,-7.36,1.97,0,3,6
27780,6.98,-10.91,6.35,0,3,6
27800,5.3,-13.41,0.22,0,3,6
27820,8.26,-12.24,0.53,0,3,6
27840,7.65,-10.9,3.58,0,3,6
27860,7.44,-12.21,4.26,0,3,6
27880,6.69,-13.23,1.83,0,3,6
27900,5.85,-11.45,2.27,0,3,6
27920,5.25,-10.52,1.06,0,3,6
27940,5.45,-10.4,2.08,0,3,6
27960,4.24,-10.3,0.36,0,3,6
27980,3.77,-10.08,-0.45,0,3,6
28000,2.46,-9.24,-0.85,0,3,6
28020,2.66,-9.49,-0.63,0,3,6
28040,1.28,-8.62,-0.8,0,3,6
28060,0.82,-8.84,-1.05,0,3,6
28080,1.37,-9.94,-0.69,0,3,6
28100,1.17,-10.08,-2.03,0,3,6
28120,1.53,-9.7,-1.31,0,3,6
28140,1.48,-9.62,-1.11,0,3,6
28160,1.14,-8.77,-1.11,0,3,6
28180,0.88,-9.31,-1.84,0,3,6
28200,0.93,-9.59,-2.04,0,3,6
28220,1.13,-9.71,-2.23,0,3,6
28240,1.14,-9.7,-2.12,0,3,6
28260,1.45,-9.49,-2.01,0,3,6
28280,1.48,-9.38,-2.24,0,3,6
28300,2.05,-10.77,-3.21,0,3,6
28320,3.34,-11.71,-3.52,0,3,6
28340,1.42,-10.88,-4.92,0,3,6
28360,2.12,-8.9,-3.68,0,3,6
28380,2.21,-7.58,-2.61,0,3,6
28400,1.01,-7.31,-3.23,0,3,6
28420,1.78,-8.67,-3.09,0,3,6
28440,2.1,-9.98,-3.71,0,3,6
28460,2.26,-10.09,-4.26,0,3,6
28480,2.15,-9.54,-4.21,0,3,6
28500,2.13,-8.8,-3.66,0,3,6
28520,2.4,-8.52,-3.18,0,3,6
28540,2.4,-8.82,-3.3,0,3,6
28560,2.17,-9.41,-3.63,0,3,6
28580,2.14,-9.51,-3.54,0,3,6
28600,2.25,-9.24,-3.31,0,3,6
28620,2.09,-8.98,-3.35,0,3,6
28640,1.9,-8.88,-3.33,0,3,6
28660,1.97,-9.02,-3.33,0,3,6
28680,1.83,-9.07,-3.14,0,3,6
28700,1.9,-9.22,-3.23,0,3,6
28720,1.85,-9.34,-3.39,0,3,6
28740,2.04,-9.31,-3.18,0,3,6
28760,1.94,-9.14,-3.01,0,3,6
28780,2.03,-9.13,-3.02,0,3,6
28800,1.93,-9.26,-3.16,0,3,6
28820,1.87,-9.29,-3.29,0,3,6
28840,1.84,-9.32,-3.3,0,3,6
28860,1.99,-9.22,-3.14,0,3,6
28880,1.96,-9.23,-3.1,0,3,6
28900,1.88,-9.32,-3.16,0,3,6
28920,1.92,-9.23,-3.19,0,3,6
28940,1.97,-9.19,-2.89,0,3,6
28960,1.95,-9.18,-3.15,0,3,6
28980,1.96,-9.28,-3.12,0,3,6
29000,1.99,-9.29,-3.05,0,3,6
29020,1.97,-9.19,-3.12,0,3,6
29040,2.0,-9.26,-3.1,0,3,6
29060,1.89,-9.21,-3.34,0,3,6
29080,2.02,-9.26,-2.98,0,3,6
29100,2.05,-9.33,-3.02,0,3,6
29120,1.94,-9.21,-3.02,0,3,6
29140,2.07,-9.24,-2.97,0,3,6
29160,2.05,-9.22,-3.05,0,3,6
29180,2.07,-9.24,-3.06,0,3,6
29200,1.97,-9.21,-3.09,0,3,6
29220,2.04,-9.29,-3.14,0,3,6
29240,1.99,-9.24,-3.09,0,3,6
29260,2.03,-9.16,-3.04,0,3,6
29280,2.01,-9.13,-3.11,0,3,6
29300,1.96,-9.35,-3.15,0,3,6
29320,2.06,-9.38,-2.89,0,3,6
29340,1.91,-9.25,-3.04,0,3,6
29360,1.93,-9.2,-3.21,0,3,6
29380,2.02,-9.28,-3.08,0,3,6
29400,2.05,-9.33,-3.02,0,3,6
29420,1.98,-9.28,-3.06,0,3,6
29440,1.85,-9.22,-3.22,0,3,6
29460,1.93,-9.22,-3.13,0,3,6
29480,1.95,-9.23,-3.0,0,3,6
29500,1.92,-9.28,-3.12,0,3,6
29520,1.92,-9.25,-3.07,0,3,6
29540,1.97,-9.27,-3.03,0,3,6
29560,1.98,-9.21,-2.86,0,3,6
29580,2.02,-9.24,-2.95,0,3,6
27700,-1.93,-4.46,4.46,0,3,7
27720,8.77,-11.61,6.39,0,3,7
27740,8.05,-6.56,0.92,0,3,7
27760,4.63,-7.36,1.97,0,3,7
27780,6.98,-10.91,6.35,0,3,7
27800,5.3,-13.41,0.22,0,3,7
27820,8.26,-12.24,0.53,0,3,7
27840,7.65,-10.9,3.58,0,3,7
27860,7.44,-12.21,4.26,0,3,7
27880,6.69,-13.23,1.83,0,3,7
27900,5.85,-11.45,2.27,0,3,7
27920,5.25,-10.52,1.06,0,3,7
27940,5.45,-10.4,2.08,0,3,7
27960,4.24,-10.3,0.36,0,3,7
27980,3.77,-10.08,-0.45,0,3,7
28000,2.46,-9.24,-0.85,0,3,7
28020,2.66,-9.49,-0.63,0,3,7
28040,1.28,-8.62,-0.8,0,3,7
28060,0.82,-8.84,-1.05,0,3,7
28080,1.37,-9.94,-0.69,0,3,7
28100,1.17,-10.08,-2.03,0,3,7
28120,1.53,-9.7,-1.31,0,3,7
28140,1.48,-9.62,-1.11,0,3,7
28160,1.14,-8.77,-1.11,0,3,7
28180,0.88,-9.31,-1.84,0,3,7
28200,0.93,-9.59,-2.04,0,3,7
28220,1.13,-9.71,-2.23,0,3,7
28240,1.14,-9.7,-2.12,0,3,7
28260,1.45,-9.49,-2.01,0,3,7
28280,1.48,-9.38,-2.24,0,3,7
28300,2.05,-10.77,-3.21,0,3,7
28320,3.34,-11.71,-3.52,0,3,7
28340,1.42,-10.88,-4.92,0,3,7
28360,2.12,-8.9,-3.68,0,3,7
28380,2.21,-7.58,-2.61,0,3,7
28400,1.01,-7.31,-3.23,0,3,7
28420,1.78,-8.67,-3.09,0,3,7
28440,2.1,-9.98,-3.71,0,3,7
28460,2.26,-10.09,-4.26,0,3,7
28480,2.15,-9.54,-4.21,0,3,7
28500,2.13,-8.8,-3.66,0,3,7
28520,2.4,-8.52,-3.18,0,3,7
28540,2.4,-8.82,-3.3,0,3,7
28560,2.17,-9.41,-3.63,0,3,7
28580,2.14,-9.51,-3.54,0,3,7
28600,2.25,-9.24,-3.31,0,3,7
28620,2.09,-8.98,-3.35,0,3,7
28640,1.9,-8.88,-3.33,0,3,7
28660,1.97,-9.02,-3.33,0,3,7
28680,1.83,-9.07,-3.14,0,3,7
28700,1.9,-9.22,-3.23,0,3,7
28720,1.85,-9.34,-3.39,0,3,7
28740,2.04,-9.31,-3.18,0,3,7
28760,1.94,-9.14,-3.01,0,3,7
28780,2.03,-9.13,-3.02,0,3,7
28800,1.93,-9.26,-3.16,0,3,7
28820,1.87,-9.29,-3.29,0,3,7
28840,1.84,-9.32,-3.3,0,3,7
28860,1.99,-9.22,-3.14,0,3,7
28880,1.96,-9.23,-3.1,0,3,7
28900,1.88,-9.32,-3.16,0,3,7
28920,1.92,-9.23,-3.19,0,3,7
28940,1.97,-9.19,-2.89,0,3,7
28960,1.95,-9.18,-3.15,0,3,7
28980,1.96,-9.28,-3.12,0,3,7
29000,1.99,-9.29,-3.05,0,3,7
29020,1.97,-9.19,-3.12,0,3,7
29040,2.0,-9.26,-3.1,0,3,7
29060,1.89,-9.21,-3.34,0,3,7
29080,2.02,-9.26,-2.98,0,3,7
29100,2.05,-9.33,-3.02,0,3,7
29120,1.94,-9.21,-3.02,0,3,7
29140,2.07,-9.24,-2.97,0,3,7
29160,2.05,-9.22,-3.05,0,3,7
29180,2.07,-9.24,-3.06,0,3,7
29200,1.97,-9.21,-3.09,0,3,7
29220,2.04,-9.29,-3.14,0,3,7
29240,1.99,-9.24,-3.09,0,3,7
29260,2.03,-9.16,-3.04,0,3,7
29280,2.01,-9.13,-3.11,0,3,7
29300,1.96,-9.35,-3.15,0,3,7
29320,2.06,-9.38,-2.89,0,3,7
29340,1.91,-9.25,-3.04,0,3,7
29360,1.93,-9.2,-3.21,0,3,7
29380,2.02,-9.28,-3.08,0,3,7
29400,2.05,-9.33,-3.02,0,3,7
29420,1.98,-9.28,-3.06,0,3,7
29440,1.85,-9.22,-3.22,0,3,7
29460,1.93,-9.22,-3.13,0,3,7
29480,1.95,-9.23,-3.0,0,3,7
29500,1.92,-9.28,-3.12,0,3,7
29520,1.92,-9.25,-3.07,0,3,7
29540,1.97,-9.27,-3.03,0,3,7
29560,1.98,-9.21,-2.86,0,3,7
29580,2.02,-9.24,-2.95,0,3,7
29600,1.96,-9.19,-3.12,0,3,7
29620,2.03,-9.25,-3.05,0,3,7
29640,1.9,-9.38,-3.08,0,3,7
29660,2.01,-9.3,-3.1,0,3,7
29680,2.07,-9.2,-2.96,0,3,7
27800,5.3,-13.41,0.22,0,3,8
27820,8.26,-12.24,0.53,0,3,8
27840,7.65,-10.9,3.58,0,3,8
27860,7.44,-12.21,4.26,0,3,8
27880,6.69,-13.23,1.83,0,3,8
27900,5.85,-11.45,2.27,0,3,8
27920,5.25,-10.52,1.06,0,3,8
27940,5.45,-10.4,2.08,0,3,8
27960,4.24,-10.3,0.36,0,3,8
27980,3.77,-10.08,-0.45,0,3,8
28000,2.46,-9.24,-0.85,0,3,8
28020,2.66,-9.49,-0.63,0,3,8
28040,1.28,-8.62,-0.8,0,3,8
28060,0.82,-8.84,-1.05,0,3,8
28080,1.37,-9.94,-0.69,0,3,8
28100,1.17,-10.08,-2.03,0,3,8
28120,1.53,-9.7,-1.31,0,3,8
28140,1.48,-9.62,-1.11,0,3,8
28160,1.14,-8.77,-1.11,0,3,8
28180,0.88,-9.31,-1.84,0,3,8
28200,0.93,-9.59,-2.04,0,3,8
28220,1.13,-9.71,-2.23,0,3,8
28240,1.14,-9.7,-2.12,0,3,8
28260,1.45,-9.49,-2.01,0,3,8
28280,1.48,-9.38,-2.24,0,3,8
28300,2.05,-10.77,-3.21,0,3,8
28320,3.34,-11.71,-3.52,0,3,8
28340,1.42,-10.88,-4.92,0,3,8
28360,2.12,-8.9,-3.68,0,3,8
28380,2.21,-7.58,-2.61,0,3,8
28400,1.01,-7.31,-3.23,0,3,8
28420,1.78,-8.67,-3.09,0,3,8
28440,2.1,-9.98,-3.71,0,3,8
28460,2.26,-10.09,-4.26,0,3,8
28480,2.15,-9.54,-4.21,0,3,8
28500,2.13,-8.8,-3.66,0,3,8
28520,2.4,-8.52,-3.18,0,3,8
28540,2.4,-8.82,-3.3,0,3,8
28560,2.17,-9.41,-3.63,0,3,8
28580,2.14,-9.51,-3.54,0,3,8
28600,2.25,-9.24,-3.31,0,3,8
28620,2.09,-8.98,-3.35,0,3,8
28640,1.9,-8.88,-3.33,0,3,8
28660,1.97,-9.02,-3.33,0,3,8
28680,1.83,-9.07,-3.14,0,3,8
28700,1.9,-9.22,-3.23,0,3,8
28720,1.85,-9.34,-3.39,0,3,8
28740,2.04,-9.31,-3.18,0,3,8
28760,1.94,-9.14,-3.01,0,3,8
28780,2.03,-9.13,-3.02,0,3,8
28800,1.93,-9.26,-3.16,0,3,8
28820,1.87,-9.29,-3.29,0,3,8
28840,1.84,-9.32,-3.3,0,3,8
28860,1.99,-9.22,-3.14,0,3,8
28880,1.96,-9.23,-3.1,0,3,8
28900,1.88,-9.32,-3.16,0,3,8
28920,1.92,-9.23,-3.19,0,3,8
28940,1.97,-9.19,-2.89,0,3,8
28960,1.95,-9.18,-3.15,0,3,8
28980,1.96,-9.28,-3.12,0,3,8
29000,1.99,-9.29,-3.05,0,3,8
29020,1.97,-9.19,-3.12,0,3,8
29040,2.0,-9.26,-3.1,0,3,8
29060,1.89,-9.21,-3.34,0,3,8
29080,2.02,-9.26,-2.98,0,3,8
29100,2.05,-9.33,-3.02,0,3,8
29120,1.94,-9.21,-3.02,0,3,8
29140,2.07,-9.24,-2.97,0,3,8
29160,2.05,-9.22,-3.05,0,3,8
29180,2.07,-9.24,-3.06,0,3,8
29200,1.97,-9.21,-3.09,0,3,8
29220,2.04,-9.29,-3.14,0,3,8
29240,1.99,-9.24,-3.09,0,3,8
29260,2.03,-9.16,-3.04,0,3,8
29280,2.01,-9.13,-3.11,0,3,8
29300,1.96,-9.35,-3.15,0,3,8
29320,2.06,-9.38,-2.89,0,3,8
29340,1.91,-9.25,-3.04,0,3,8
29360,1.93,-9.2,-3.21,0,3,8
29380,2.02,-9.28,-3.08,0,3,8
29400,2.05,-9.33,-3.02,0,3,8
29420,1.98,-9.28,-3.06,0,3,8
29440,1.85,-9.22,-3.22,0,3,8
29460,1.93,-9.22,-3.13,0,3,8
29480,1.95,-9.23,-3.0,0,3,8
29500,1.92,-9.28,-3.12,0,3,8
29520,1.92,-9.25,-3.07,0,3,8
29540,1.97,-9.27,-3.03,0,3,8
29560,1.98,-9.21,-2.86,0,3,8
29580,2.02,-9.24,-2.95,0,3,8
29600,1.96,-9.19,-3.12,0,3,8
29620,2.03,-9.25,-3.05,0,3,8
29640,1.9,-9.38,-3.08,0,3,8
29660,2.01,-9.3,-3.1,0,3,8
29680,2.07,-9.2,-2.96,0,3,8
29700,2.03,-9.23,-3.02,0,3,8
29720,2.05,-9.3,-3.05,0,3,8
29740,2.07,-9.3,-3.1,0,3,8
29760,2.04,-9.22,-3.18,0,3,8
29780,2.02,-9.24,-2.98,0,3,8
27900,5.85,-11.45,2.27,0,3,9
27920,5.25,-10.52,1.06,0,3,9
27940,5.45,-10.4,2.08,0,3,9
27960,4.24,-10.3,0.36,0,3,9
27980,3.77,-10.08,-0.45,0,3,9
28000,2.46,-9.24,-0.85,0,3,9
28020,2.66,-9.49,-0.63,0,3,9
28040,1.28,-8.62,-0.8,0,3,9
28060,0.82,-8.84,-1.05,0,3,9
28080,1.37,-9.94,-0.69,0,3,9
28100,1.17,-10.08,-2.03,0,3,9
28120,1.53,-9.7,-1.31,0,3,9
28140,1.48,-9.62,-1.11,0,3,9
28160,1.14,-8.77,-1.11,0,3,9
28180,0.88,-9.31,-1.84,0,3,9
28200,0.93,-9.59,-2.04,0,3,9
28220,1.13,-9.71,-2.23,0,3,9
28240,1.14,-9.7,-2.12,0,3,9
28260,1.45,-9.49,-2.01,0,3,9
28280,1.48,-9.38,-2.24,0,3,9
28300,2.05,-10.77,-3.21,0,3,9
28320,3.34,-11.71,-3.52,0,3,9
28340,1.42,-10.88,-4.92,0,3,9
28360,2.12,-8.9,-3.68,0,3,9
28380,2.21,-7.58,-2.61,0,3,9
28400,1.01,-7.31,-3.23,0,3,9
28420,1.78,-8.67,-3.09,0,3,9
28440,2.1,-9.98,-3.71,0,3,9
28460,2.26,-10.09,-4.26,0,3,9
28480,2.15,-9.54,-4.21,0,3,9
28500,2.13,-8.8,-3.66,0,3,9
28520,2.4,-8.52,-3.18,0,3,9
28540,2.4,-8.82,-3.3,0,3,9
28560,2.17,-9.41,-3.63,0,3,9
28580,2.14,-9.51,-3.54,0,3,9
28600,2.25,-9.24,-3.31,0,3,9
28620,2.09,-8.98,-3.35,0,3,9
28640,1.9,-8.88,-3.33,0,3,9
28660,1.97,-9.02,-3.33,0,3,9
28680,1.83,-9.07,-3.14,0,3,9
28700,1.9,-9.22,-3.23,0,3,9
28720,1.85,-9.34,-3.39,0,3,9
28740,2.04,-9.31,-3.18,0,3,9
28760,1.94,-9.14,-3.01,0,3,9
28780,2.03,-9.13,-3.02,0,3,9
28800,1.93,-9.26,-3.16,0,3,9
28820,1.87,-9.29,-3.29,0,3,9
28840,1.84,-9.32,-3.3,0,3,9
28860,1.99,-9.22,-3.14,0,3,9
28880,1.96,-9.23,-3.1,0,3,9
28900,1.88,-9.32,-3.16,0,3,9
28920,1.92,-9.23,-3.19,0,3,9
28940,1.97,-9.19,-2.89,0,3,9
28960,1.95,-9.18,-3.15,0,3,9
28980,1.96,-9.28,-3.12,0,3,9
29000,1.99,-9.29,-3.05,0,3,9
29020,1.97,-9.19,-3.12,0,3,9
29040,2.0,-9.26,-3.1,0,3,9
29060,1.89,-9.21,-3.34,0,3,9
29080,2.02,-9.26,-2.98,0,3,9
29100,2.05,-9.33,-3.02,0,3,9
29120,1.94,-9.21,-3.02,0,3,9
29140,2.07,-9.24,-2.97,0,3,9
29160,2.05,-9.22,-3.05,0,3,9
29180,2.07,-9.24,-3.06,0,3,9
29200,1.97,-9.21,-3.09,0,3,9
29220,2.04,-9.29,-3.14,0,3,9
29240,1.99,-9.24,-3.09,0,3,9
29260,2.03,-9.16,-3.04,0,3,9
29280,2.01,-9.13,-3.11,0,3,9
29300,1.96,-9.35,-3.15,0,3,9
29320,2.06,-9.38,-2.89,0,3,9
29340,1.91,-9.25,-3.04,0,3,9
29360,1.93,-9.2,-3.21,0,3,9
29380,2.02,-9.28,-3.08,0,3,9
29400,2.05,-9.33,-3.02,0,3,9
29420,1.98,-9.28,-3.06,0,3,9
29440,1.85,-9.22,-3.22,0,3,9
29460,1.93,-9.22,-3.13,0,3,9
29480,1.95,-9.23,-3.0,0,3,9
29500,1.92,-9.28,-3.12,0,3,9
29520,1.92,-9.25,-3.07,0,3,9
29540,1.97,-9.27,-3.03,0,3,9
29560,1.98,-9.21,-2.86,0,3,9
29580,2.02,-9.24,-2.95,0,3,9
29600,1.96,-9.19,-3.12,0,3,9
29620,2.03,-9.25,-3.05,0,3,9
29640,1.9,-9.38,-3.08,0,3,9
29660,2.01,-9.3,-3.1,0,3,9
29680,2.07,-9.2,-2.96,0,3,9
29700,2.03,-9.23,-3.02,0,3,9
29720,2.05,-9.3,-3.05,0,3,9
29740,2.07,-9.3,-3.1,0,3,9
29760,2.04,-9.22,-3.18,0,3,9
29780,2.02,-9.24,-2.98,0,3,9
29800,2.01,-9.23,-3.04,0,3,9
29820,1.97,-9.24,-3.07,0,3,9
29840,1.98,-9.3,-2.99,0,3,9
29860,2.0,-9.22,-2.97,0,3,9
29880,1.96,-9.25,-3.02,0,3,9
28000,2.46,-9.24,-0.85,0,3,10
28020,2.66,-9.49,-0.63,0,3,10
28040,1.28,-8.62,-0.8,0,3,10
28060,0.82,-8.84,-1.05,0,3,10
28080,1.37,-9.94,-0.69,0,3,10
28100,1.17,-10.08,-2.03,0,3,10
28120,1.53,-9.7,-1.31,0,3,10
28140,1.48,-9.62,-1.11,0,3,10
28160,1.14,-8.77,-1.11,0,3,10
28180,0.88,-9.31,-1.84,0,3,10
28200,0.93,-9.59,-2.04,0,3,10
28220,1.13,-9.71,-2.23,0,3,10
28240,1.14,-9.7,-2.12,0,3,10
28260,1.45,-9.49,-2.01,0,3,10
28280,1.48,-9.38,-2.24,0,3,10
28300,2.05,-10.77,-3.21,0,3,10
28320,3.34,-11.71,-3.52,0,3,10
28340,1.42,-10.88,-4.92,0,3,10
28360,2.12,-8.9,-3.68,0,3,10
28380,2.21,-7.58,-2.61,0,3,10
28400,1.01,-7.31,-3.23,0,3,10
28420,1.78,-8.67,-3.09,0,3,10
28440,2.1,-9.98,-3.71,0,3,10
28460,2.26,-10.09,-4.26,0,3,10
28480,2.15,-9.54,-4.21,0,3,10
28500,2.13,-8.8,-3.66,0,3,10
28520,2.4,-8.52,-3.18,0,3,10
28540,2.4,-8.82,-3.3,0,3,10
28560,2.17,-9.41,-3.63,0,3,10
28580,2.14,-9.51,-3.54,0,3,10
28600,2.25,-9.24,-3.31,0,3,10
28620,2.09,-8.98,-3.35,0,3,10
28640,1.9,-8.88,-3.33,0,3,10
28660,1.97,-9.02,-3.33,0,3,10
28680,1.83,-9.07,-3.14,0,3,10
28700,1.9,-9.22,-3.23,0,3,10
28720,1.85,-9.34,-3.39,0,3,10
28740,2.04,-9.31,-3.18,0,3,10
28760,1.94,-9.14,-3.01,0,3,10
28780,2.03,-9.13,-3.02,0,3,10
28800,1.93,-9.26,-3.16,0,3,10
28820,1.87,-9.29,-3.29,0,3,10
28840,1.84,-9.32,-3.3,0,3,10
28860,1.99,-9.22,-3.14,0,3,10
28880,1.96,-9.23,-3.1,0,3,10
28900,1.88,-9.32,-3.16,0,3,10
28920,1.92,-9.23,-3.19,0,3,10
28940,1.97,-9.19,-2.89,0,3,10
28960,1.95,-9.18,-3.15,0,3,10
28980,1.96,-9.28,-3.12,0,3,10
29000,1.99,-9.29,-3.05,0,3,10
29020,1.97,-9.19,-3.12,0,3,10
29040,2.0,-9.26,-3.1,0,3,10
29060,1.89,-9.21,-3.34,0,3,10
29080,2.02,-9.26,-2.98,0,3,10
29100,2.05,-9.33,-3.02,0,3,10
29120,1.94,-9.21,-3.02,0,3,10
29140,2.07,-9.24,-2.97,0,3,10
29160,2.05,-9.22,-3.05,0,3,10
29180,2.07,-9.24,-3.06,0,3,10
29200,1.97,-9.21,-3.09,0,3,10
29220,2.04,-9.29,-3.14,0,3,10
29240,1.99,-9.24,-3.09,0,3,10
29260,2.03,-9.16,-3.04,0,3,10
29280,2.01,-9.13,-3.11,0,3,10
29300,1.96,-9.35,-3.15,0,3,10
29320,2.06,-9.38,-2.89,0,3,10
29340,1.91,-9.25,-3.04,0,3,10
29360,1.93,-9.2,-3.21,0,3,10
29380,2.02,-9.28,-3.08,0,3,10
29400,2.05,-9.33,-3.02,0,3,10
29420,1.98,-9.28,-3.06,0,3,10
29440,1.85,-9.22,-3.22,0,3,10
29460,1.93,-9.22,-3.13,0,3,10
29480,1.95,-9.23,-3.0,0,3,10
29500,1.92,-9.28,-3.12,0,3,10
29520,1.92,-9.25,-3.07,0,3,10
29540,1.97,-9.27,-3.03,0,3,10
29560,1.98,-9.21,-2.86,0,3,10
29580,2.02,-9.24,-2.95,0,3,10
29600,1.96,-9.19,-3.12,0,3,10
29620,2.03,-9.25,-3.05,0,3,10
29640,1.9,-9.38,-3.08,0,3,10
29660,2.01,-9.3,-3.1,0,3,10
29680,2.07,-9.2,-2.96,0,3,10
29700,2.03,-9.23,-3.02,0,3,10
29720,2.05,-9.3,-3.05,0,3,10
29740,2.07,-9.3,-3.1,0,3,10
29760,2.04,-9.22,-3.18,0,3,10
29780,2.02,-9.24,-2.98,0,3,10
29800,2.01,-9.23,-3.04,0,3,10
29820,1.97,-9.24,-3.07,0,3,10
29840,1.98,-9.3,-2.99,0,3,10
29860,2.0,-9.22,-2.97,0,3,10
29880,1.96,-9.25,-3.02,0,3,10
29900,1.87,-9.28,-3.15,0,3,10
29920,1.84,-9.13,-3.2,0,3,10
29940,1.89,-9.29,-3.15,0,3,10
29960,2.11,-9.52,-2.99,0,3,10
29980,2.1,-9.49,-2.93,0,3,10
36280,-7.72,0.49,-4.68,1,4,1
36300,-6.22,0.34,-3.94,1,4,1
36320,-7.43,0.51,-3.5,1,4,1
36340,-8.55,2.31,-3.95,1,4,1
36360,-8.76,2.85,-2.85,0,4,1
36380,-6.93,-1.83,-8.97,0,4,1
36400,-8.58,-4.22,-9.27,0,4,1
36420,-8.18,-1.71,-4.83,0,4,1
36440,-7.95,0.85,-3.62,0,4,1
36460,-8.27,1.63,-4.09,0,4,1
36480,-7.85,-0.21,-4.83,0,4,1
36500,-6.0,-2.83,-4.91,0,4,1
36520,-5.5,-3.53,-2.96,0,4,1
36540,-7.39,-3.33,-3.88,0,4,1
36560,-9.0,-2.03,-5.73,0,4,1
36580,-9.37,-0.58,-5.33,0,4,1
36600,-9.82,0.74,-5.33,0,4,1
36620,-9.41,0.41,-4.74,0,4,1
36640,-9.39,-1.15,-4.69,0,4,1
36660,-9.56,-1.56,-5.1,0,4,1
36680,-10.72,-0.23,-5.5,0,4,1
36700,-9.42,1.24,-6.62,0,4,1
36720,-8.76,1.35,-6.01,0,4,1
36740,-7.33,1.3,-2.4,0,4,1
36760,-6.57,-0.12,0.14,0,4,1
36780,-4.39,1.78,5.86,0,4,1
36800,-1.32,5.04,11.32,0,4,1
36820,7.2,-3.02,11.86,0,4,1
36840,10.91,-14.8,-1.02,0,4,1
36860,6.24,-18.92,-2.85,0,4,1
36880,15.75,-19.62,2.08,0,4,1
36900,12.98,-19.62,-6.21,0,4,1
36920,5.24,-19.62,3.09,0,4,1
36940,10.64,-11.21,13.27,0,4,1
36960,8.13,-9.59,19.62,0,4,1
36980,4.4,-10.07,19.62,0,4,1
37000,-0.43,-13.73,19.62,0,4,1
37020,-3.12,-13.21,15.39,0,4,1
37040,-8.67,-1.3,19.13,0,4,1
37060,-13.88,4.83,15.29,0,4,1
37080,-10.43,7.41,12.09,0,4,1
37100,-3.61,1.5,12.17,0,4,1
37120,0.03,-7.1,11.77,0,4,1
37140,-1.93,-9.27,7.86,0,4,1
37160,-4.99,-7.46,4.85,0,4,1
37180,-5.41,-4.2,1.88,0,4,1
37200,-6.18,-0.44,-0.24,0,4,1
37220,-6.07,0.11,0.94,0,4,1
37240,-3.37,-0.99,1.64,0,4,1
37260,-3.1,-3.73,2.77,0,4,1
37280,-3.53,-5.86,2.42,0,4,1
37300,-3.94,-6.96,0.97,0,4,1
37320,-3.58,-6.49,1.23,0,4,1
37340,-3.11,-5.45,2.92,0,4,1
37360,-2.46,-4.31,3.96,0,4,1
37380,-3.61,-4.21,4.64,0,4,1
37400,-4.64,-4.67,4.64,0,4,1
37420,-5.37,-5.69,4.99,0,4,1
37440,-4.38,-6.71,6.09,0,4,1
37460,-3.44,-7.36,7.11,0,4,1
37480,-3.64,-8.12,7.53,0,4,1
37500,-4.18,-7.98,7.25,0,4,1
37520,-5.26,-7.19,7.28,0,4,1
37540,-5.32,-6.98,7.47,0,4,1
37560,-4.38,-7.19,7.54,0,4,1
37580,-3.57,-7.53,8.15,0,4,1
37600,-3.57,-7.02,7.86,0,4,1
37620,-4.53,-6.04,7.04,0,4,1
37640,-4.4,-5.54,6.77,0,4,1
37660,-3.64,-5.65,6.74,0,4,1
37680,-3.31,-5.95,6.33,0,4,1
37700,-3.46,-6.15,6.03,0,4,1
37720,-3.46,-6.2,6.09,0,4,1
37740,-3.4,-6.46,5.82,0,4,1
37760,-3.57,-6.47,5.13,0,4,1
37780,-3.69,-6.25,4.98,0,4,1
37800,-3.57,-6.11,5.45,0,4,1
37820,-3.41,-6.1,5.45,0,4,1
37840,-3.55,-6.56,5.22,0,4,1
37860,-3.54,-7.01,5.27,0,4,1
37880,-3.44,-7.18,5.37,0,4,1
37900,-3.73,-6.98,5.08,0,4,1
37920,-4.06,-6.78,5.12,0,4,1
37940,-3.86,-6.75,5.7,0,4,1
37960,-3.67,-6.79,5.93,0,4,1
37980,-3.7,-7.01,5.91,0,4,1
38000,-3.66,-7.23,5.75,0,4,1
38020,-3.56,-7.29,5.96,0,4,1
38040,-3.65,-7.2,6.13,0,4,1
38060,-3.74,-7.23,5.97,0,4,1
38080,-3.48,-7.34,5.86,0,4,1
38100,-3.41,-7.08,5.85,0,4,1
38120,-3.48,-7.1,5.64,0,4,1
38140,-3.37,-7.11,5.51,0,4,1
38160,-3.33,-7.0,5.45,0,4,1
38180,-3.13,-6.96,5.51,0,4,1
38200,-3.19,-7.02,5.45,0,4,1
38220,-3.27,-6.92,5.34,0,4,1
38240,-3.57,-6.81,5.01,0,4,1
38260,-3.59,-6.78,5.01,0,4,1
36380,-6.93,-1.83,-8.97,0,4,2
36400,-8.58,-4.22,-9.27,0,4,2
36420,-8.18,-1.71,-4.83,0,4,2
36440,-7.95,0.85,-3.62,0,4,2
36460,-8.27,1.63,-4.09,0,4,2
36480,-7.85,-0.21,-4.83,0,4,2
36500,-6.0,-2.83,-4.91,0,4,2
36520,-5.5,-3.53,-2.96,0,4,2
36540,-7.39,-3.33,-3.88,0,4,2
36560,-9.0,-2.03,-5.73,0,4,2
36580,-9.37,-0.58,-5.33,0,4,2
36600,-9.82,0.74,-5.33,0,4,2
36620,-9.41,0.41,-4.74,0,4,2
36640,-9.39,-1.15,-4.69,0,4,2
36660,-9.56,-1.56,-5.1,0,4,2
36680,-10.72,-0.23,-5.5,0,4,2
36700,-9.42,1.24,-6.62,0,4,2
36720,-8.76,1.35,-6.01,0,4,2
36740,-7.33,1.3,-2.4,0,4,2
36760,-6.57,-0.12,0.14,0,4,2
36780,-4.39,1.78,5.86,0,4,2
36800,-1.32,5.04,11.32,0,4,2
36820,7.2,-3.02,11.86,0,4,2
36840,10.91,-14.8,-1.02,0,4,2
36860,6.24,-18.92,-2.85,0,4,2
36880,15.75,-19.62,2.08,0,4,2
36900,12.98,-19.62,-6.21,0,4,2
36920,5.24,-19.62,3.09,0,4,2
36940,10.64,-11.21,13.27,0,4,2
36960,8.13,-9.59,19.62,0,4,2
36980,4.4,-10.07,19.62,0,4,2
37000,-0.43,-13.73,19.62,0,4,2
37020,-3.12,-13.21,15.39,0,4,2
37040,-8.67,-1.3,19.13,0,4,2
37060,-13.88,4.83,15.29,0,4,2
37080,-10.43,7.41,12.09,0,4,2
37100,-3.61,1.5,12.17,0,4,2
37120,0.03,-7.1,11.77,0,4,2
37140,-1.93,-9.27,7.86,0,4,2
37160,-4.99,-7.46,4.85,0,4,2
37180,-5.41,-4.2,1.88,0,4,2
37200,-6.18,-0.44,-0.24,0,4,2
37220,-6.07,0.11,0.94,0,4,2
37240,-3.37,-0.99,1.64,0,4,2
37260,-3.1,-3.73,2.77,0,4,2
37280,-3.53,-5.86,2.42,0,4,2
37300,-3.94,-6.96,0.97,0,4,2
37320,-3.58,-6.49,1.23,0,4,2
37340,-3.11,-5.45,2.92,0,4,2
37360,-2.46,-4.31,3.96,0,4,2
37380,-3.61,-4.21,4.64,0,4,2
37400,-4.64,-4.67,4.64,0,4,2
37420,-5.37,-5.69,4.99,0,4,2
37440,-4.38,-6.71,6.09,0,4,2
37460,-3.44,-7.36,7.11,0,4,2
37480,-3.64,-8.12,7.53,0,4,2
37500,-4.18,-7.98,7.25,0,4,2
37520,-5.26,-7.19,7.28,0,4,2
37540,-5.32,-6.98,7.47,0,4,2
37560,-4.38,-7.19,7.54,0,4,2
37580,-3.57,-7.53,8.15,0,4,2
37600,-3.57,-7.02,7.86,0,4,2
37620,-4.53,-6.04,7.04,0,4,2
37640,-4.4,-5.54,6.77,0,4,2
37660,-3.64,-5.65,6.74,0,4,2
37680,-3.31,-5.95,6.33,0,4,2
37700,-3.46,-6.15,6.03,0,4,2
37720,-3.46,-6.2,6.09,0,4,2
37740,-3.4,-6.46,5.82,0,4,2
37760,-3.57,-6.47,5.13,0,4,2
37780,-3.69,-6.25,4.98,0,4,2
37800,-3.57,-6.11,5.45,0,4,2
37820,-3.41,-6.1,5.45,0,4,2
37840,-3.55,-6.56,5.22,0,4,2
37860,-3.54,-7.01,5.27,0,4,2
37880,-3.44,-7.18,5.37,0,4,2
37900,-3.73,-6.98,5.08,0,4,2
37920,-4.06,-6.78,5.12,0,4,2
37940,-3.86,-6.75,5.7,0,4,2
37960,-3.67,-6.79,5.93,0,4,2
37980,-3.7,-7.01,5.91,0,4,2
38000,-3.66,-7.23,5.75,0,4,2
38020,-3.56,-7.29,5.96,0,4,2
38040,-3.65,-7.2,6.13,0,4,2
38060,-3.74,-7.23,5.97,0,4,2
38080,-3.48,-7.34,5.86,0,4,2
38100,-3.41,-7.08,5.85,0,4,2
38120,-3.48,-7.1,5.64,0,4,2
38140,-3.37,-7.11,5.51,0,4,2
38160,-3.33,-7.0,5.45,0,4,2
38180,-3.13,-6.96,5.51,0,4,2
38200,-3.19,-7.02,5.45,0,4,2
38220,-3.27,-6.92,5.34,0,4,2
38240,-3.57,-6.81,5.01,0,4,2
38260,-3.59,-6.78,5.01,0,4,2
38280,-3.26,-7.06,5.69,0,4,2
38300,-2.83,-7.26,6.1,0,4,2
38320,-2.95,-7.22,5.84,0,4,2
38340,-3.58,-6.71,5.07,0,4,2
38360,-4.05,-6.31,4.88,0,4,2
36480,-7.85,-0.21,-4.83,0,4,3
36500,-6.0,-2.83,-4.91,0,4,3
36520,-5.5,-3.53,-2.96,0,4,3
36540,-7.39,-3.33,-3.88,0,4,3
36560,-9.0,-2.03,-5.73,0,4,3
36580,-9.37,-0.58,-5.33,0,4,3
36600,-9.82,0.74,-5.33,0,4,3
36620,-9.41,0.41,-4.74,0,4,3
36640,-9.39,-1.15,-4.69,0,4,3
36660,-9.56,-1.56,-5.1,0,4,3
36680,-10.72,-0.23,-5.5,0,4,3
36700,-9.42,1.24,-6.62,0,4,3
36720,-8.76,1.35,-6.01,0,4,3
36740,-7.33,1.3,-2.4,0,4,3
36760,-6.57,-0.12,0.14,0,4,3
36780,-4.39,1.78,5.86,0,4,3
36800,-1.32,5.04,11.32,0,4,3
36820,7.2,-3.02,11.86,0,4,3
36840,10.91,-14.8,-1.02,0,4,3
36860,6.24,-18.92,-2.85,0,4,3
36880,15.75,-19.62,2.08,0,4,3
36900,12.98,-19.62,-6.21,0,4,3
36920,5.24,-19.62,3.09,0,4,3
36940,10.64,-11.21,13.27,0,4,3
36960,8.13,-9.59,19.62,0,4,3
36980,4.4,-10.07,19.62,0,4,3
37000,-0.43,-13.73,19.62,0,4,3
37020,-3.12,-13.21,15.39,0,4,3
37040,-8.67,-1.3,19.13,0,4,3
37060,-13.88,4.83,15.29,0,4,3
37080,-10.43,7.41,12.09,0,4,3
37100,-3.61,1.5,12.17,0,4,3
37120,0.03,-7.1,11.77,0,4,3
37140,-1.93,-9.27,7.86,0,4,3
37160,-4.99,-7.46,4.85,0,4,3
37180,-5.41,-4.2,1.88,0,4,3
37200,-6.18,-0.44,-0.24,0,4,3
37220,-6.07,0.11,0.94,0,4,3
37240,-3.37,-0.99,1.64,0,4,3
37260,-3.1,-3.73,2.77,0,4,3
37280,-3.53,-5.86,2.42,0,4,3
37300,-3.94,-6.96,0.97,0,4,3
37320,-3.58,-6.49,1.23,0,4,3
37340,-3.11,-5.45,2.92,0,4,3
37360,-2.46,-4.31,3.96,0,4,3
37380,-3.61,-4.21,4.64,0,4,3
37400,-4.64,-4.67,4.64,0,4,3
37420,-5.37,-5.69,4.99,0,4,3
37440,-4.38,-6.71,6.09,0,4,3
37460,-3.44,-7.36,7.11,0,4,3
37480,-3.64,-8.12,7.53,0,4,3
37500,-4.18,-7.98,7.25,0,4,3
37520,-5.26,-7.19,7.28,0,4,3
37540,-5.32,-6.98,7.47,0,4,3
37560,-4.38,-7.19,7.54,0,4,3
37580,-3.57,-7.53,8.15,0,4,3
37600,-3.57,-7.02,7.86,0,4,3
37620,-4.53,-6.04,7.04,0,4,3
37640,-4.4,-5.54,6.77,0,4,3
37660,-3.64,-5.65,6.74,0,4,3
37680,-3.31,-5.95,6.33,0,4,3
37700,-3.46,-6.15,6.03,0,4,3
37720,-3.46,-6.2,6.09,0,4,3
37740,-3.4,-6.46,5.82,0,4,3
37760,-3.57,-6.47,5.13,0,4,3
37780,-3.69,-6.25,4.98,0,4,3
37800,-3.57,-6.11,5.45,0,4,3
37820,-3.41,-6.1,5.45,0,4,3
37840,-3.55,-6.56,5.22,0,4,3
37860,-3.54,-7.01,5.27,0,4,3
37880,-3.44,-7.18,5.37,0,4,3
37900,-3.73,-6.98,5.08,0,4,3
37920,-4.06,-6.78,5.12,0,4,3
37940,-3.86,-6.75,5.7,0,4,3
37960,-3.67,-6.79,5.93,0,4,3
37980,-3.7,-7.01,5.91,0,4,3
38000,-3.66,-7.23,5.75,0,4,3
38020,-3.56,-7.29,5.96,0,4,3
38040,-3.65,-7.2,6.13,0,4,3
38060,-3.74,-7.23,5.97,0,4,3
38080,-3.48,-7.34,5.86,0,4,3
38100,-3.41,-7.08,5.85,0,4,3
38120,-3.48,-7.1,5.64,0,4,3
38140,-3.37,-7.11,5.51,0,4,3
38160,-3.33,-7.0,5.45,0,4,3
38180,-3.13,-6.96,5.51,0,4,3
38200,-3.19,-7.02,5.45,0,4,3
38220,-3.27,-6.92,5.34,0,4,3
38240,-3.57,-6.81,5.01,0,4,3
38260,-3.59,-6.78,5.01,0,4,3
38280,-3.26,-7.06,5.69,0,4,3
38300,-2.83,-7.26,6.1,0,4,3
38320,-2.95,-7.22,5.84,0,4,3
38340,-3.58,-6.71,5.07,0,4,3
38360,-4.05,-6.31,4.88,0,4,3
38380,-3.88,-6.53,5.19,0,4,3
38400,-3.09,-7.1,5.67,0,4,3
38420,-2.85,-7.44,5.75,0,4,3
38440,-3.03,-7.49,5.92,0,4,3
38460,-3.39,-7.16,5.59,0,4,3
36580,-9.37,-0.58,-5.33,0,4,4
36600,-9.82,0.74,-5.33,0,4,4
36620,-9.41,0.41,-4.74,0,4,4
36640,-9.39,-1.15,-4.69,0,4,4
36660,-9.56,-1.56,-5.1,0,4,4
36680,-10.72,-0.23,-5.5,0,4,4
36700,-9.42,1.24,-6.62,0,4,4
36720,-8.76,1.35,-6.01,0,4,4
36740,-7.33,1.3,-2.4,0,4,4
36760,-6.57,-0.12,0.14,0,4,4
36780,-4.39,1.78,5.86,0,4,4
36800,-1.32,5.04,11.32,0,4,4
36820,7.2,-3.02,11.86,0,4,4
36840,10.91,-14.8,-1.02,0,4,4
36860,6.24,-18.92,-2.85,0,4,4
36880,15.75,-19.62,2.08,0,4,4
36900,12.98,-19.62,-6.21,0,4,4
36920,5.24,-19.62,3.09,0,4,4
36940,10.64,-11.21,13.27,0,4,4
36960,8.13,-9.59,19.62,0,4,4
36980,4.4,-10.07,19.62,0,4,4
37000,-0.43,-13.73,19.62,0,4,4
37020,-3.12,-13.21,15.39,0,4,4
37040,-8.67,-1.3,19.13,0,4,4
37060,-13.88,4.83,15.29,0,4,4
37080,-10.43,7.41,12.09,0,4,4
37100,-3.61,1.5,12.17,0,4,4
37120,0.03,-7.1,11.77,0,4,4
37140,-1.93,-9.27,7.86,0,4,4
37160,-4.99,-7.46,4.85,0,4,4
37180,-5.41,-4.2,1.88,0,4,4
37200,-6.18,-0.44,-0.24,0,4,4
37220,-6.07,0.11,0.94,0,4,4
37240,-3.37,-0.99,1.64,0,4,4
37260,-3.1,-3.73,2.77,0,4,4
37280,-3.53,-5.86,2.42,0,4,4
37300,-3.94,-6.96,0.97,0,4,4
37320,-3.58,-6.49,1.23,0,4,4
37340,-3.11,-5.45,2.92,0,4,4
37360,-2.46,-4.31,3.96,0,4,4
37380,-3.61,-4.21,4.64,0,4,4
37400,-4.64,-4.67,4.64,0,4,4
37420,-5.37,-5.69,4.99,0,4,4
37440,-4.38,-6.71,6.09,0,4,4
37460,-3.44,-7.36,7.11,0,4,4
37480,-3.64,-8.12,7.53,0,4,4
37500,-4.18,-7.98,7.25,0,4,4
37520,-5.26,-7.19,7.28,0,4,4
37540,-5.32,-6.98,7.47,0,4,4
37560,-4.38,-7.19,7.54,0,4,4
37580,-3.57,-7.53,8.15,0,4,4
37600,-3.57,-7.02,7.86,0,4,4
37620,-4.53,-6.04,7.04,0,4,4
37640,-4.4,-5.54,6.77,0,4,4
37660,-3.64,-5.65,6.74,0,4,4
37680,-3.31,-5.95,6.33,0,4,4
37700,-3.46,-6.15,6.03,0,4,4
37720,-3.46,-6.2,6.09,0,4,4
37740,-3.4,-6.46,5.82,0,4,4
37760,-3.57,-6.47,5.13,0,4,4
37780,-3.69,-6.25,4.98,0,4,4
37800,-3.57,-6.11,5.45,0,4,4
37820,-3.41,-6.1,5.45,0,4,4
37840,-3.55,-6.56,5.22,0,4,4
37860,-3.54,-7.01,5.27,0,4,4
37880,-3.44,-7.18,5.37,0,4,4
37900,-3.73,-6.98,5.08,0,4,4
37920,-4.06,-6.78,5.12,0,4,4
37940,-3.86,-6.75,5.7,0,4,4
37960,-3.67,-6.79,5.93,0,4,4
37980,-3.7,-7.01,5.91,0,4,4
38000,-3.66,-7.23,5.75,0,4,4
38020,-3.56,-7.29,5.96,0,4,4
38040,-3.65,-7.2,6.13,0,4,4
38060,-3.74,-7.23,5.97,0,4,4
38080,-3.48,-7.34,5.86,0,4,4
38100,-3.41,-7.08,5.85,0,4,4
38120,-3.48,-7.1,5.64,0,4,4
38140,-3.37,-7.11,5.51,0,4,4
38160,-3.33,-7.0,5.45,0,4,4
38180,-3.13,-6.96,5.51,0,4,4
38200,-3.19,-7.02,5.45,0,4,4
38220,-3.27,-6.92,5.34,0,4,4
38240,-3.57,-6.81,5.01,0,4,4
38260,-3.59,-6.78,5.01,0,4,4
38280,-3.26,-7.06,5.69,0,4,4
38300,-2.83,-7.26,6.1,0,4,4
38320,-2.95,-7.22,5.84,0,4,4
38340,-3.58,-6.71,5.07,0,4,4
38360,-4.05,-6.31,4.88,0,4,4
38380,-3.88,-6.53,5.19,0,4,4
38400,-3.09,-7.1,5.67,0,4,4
38420,-2.85,-7.44,5.75,0,4,4
38440,-3.03,-7.49,5.92,0,4,4
38460,-3.39,-7.16,5.59,0,4,4
38480,-3.53,-6.85,5.19,0,4,4
38500,-3.4,-6.69,5.53,0,4,4
38520,-3.21,-6.79,5.74,0,4,4
38540,-3.42,-7.06,5.84,0,4,4
38560,-3.19,-7.64,5.7,0,4,4
36680,-10.72,-0.23,-5.5,0,4,5
36700,-9.42,1.24,-6.62,0,4,5
36720,-8.76,1.35,-6.01,0,4,5
36740,-7.33,1.3,-2.4,0,4,5
36760,-6.57,-0.12,0.14,0,4,5
36780,-4.39,1.78,5.86,0,4,5
36800,-1.32,5.04,11.32,0,4,5
36820,7.2,-3.02,11.86,0,4,5
36840,10.91,-14.8,-1.02,0,4,5
36860,6.24,-18.92,-2.85,0,4,5
36880,15.75,-19.62,2.08,0,4,5
36900,12.98,-19.62,-6.21,0,4,5
36920,5.24,-19.62,3.09,0,4,5
36940,10.64,-11.21,13.27,0,4,5
36960,8.13,-9.59,19.62,0,4,5
36980,4.4,-10.07,19.62,0,4,5
37000,-0.43,-13.73,19.62,0,4,5
37020,-3.12,-13.21,15.39,0,4,5
37040,-8.67,-1.3,19.13,0,4,5
37060,-13.88,4.83,15.29,0,4,5
37080,-10.43,7.41,12.09,0,4,5
37100,-3.61,1.5,12.17,0,4,5
37120,0.03,-7.1,11.77,0,4,5
37140,-1.93,-9.27,7.86,0,4,5
37160,-4.99,-7.46,4.85,0,4,5
37180,-5.41,-4.2,1.88,0,4,5
37200,-6.18,-0.44,-0.24,0,4,5
37220,-6.07,0.11,0.94,0,4,5
37240,-3.37,-0.99,1.64,0,4,5
37260,-3.1,-3.73,2.77,0,4,5
37280,-3.53,-5.86,2.42,0,4,5
37300,-3.94,-6.96,0.97,0,4,5
37320,-3.58,-6.49,1.23,0,4,5
37340,-3.11,-5.45,2.92,0,4,5
37360,-2.46,-4.31,3.96,0,4,5
37380,-3.61,-4.21,4.64,0,4,5
37400,-4.64,-4.67,4.64,0,4,5
37420,-5.37,-5.69,4.99,0,4,5
37440,-4.38,-6.71,6.09,0,4,5
37460,-3.44,-7.36,7.11,0,4,5
37480,-3.64,-8.12,7.53,0,4,5
37500,-4.18,-7.98,7.25,0,4,5
37520,-5.26,-7.19,7.28,0,4,5
37540,-5.32,-6.98,7.47,0,4,5
37560,-4.38,-7.19,7.54,0,4,5
37580,-3.57,-7.53,8.15,0,4,5
37600,-3.57,-7.02,7.86,0,4,5
37620,-4.53,-6.04,7.04,0,4,5
37640,-4.4,-5.54,6.77,0,4,5
37660,-3.64,-5.65,6.74,0,4,5
37680,-3.31,-5.95,6.33,0,4,5
37700,-3.46,-6.15,6.03,0,4,5
37720,-3.46,-6.2,6.09,0,4,5
37740,-3.4,-6.46,5.82,0,4,5
37760,-3.57,-6.47,5.13,0,4,5
37780,-3.69,-6.25,4.98,0,4,5
37800,-3.57,-6.11,5.45,0,4,5
37820,-3.41,-6.1,5.45,0,4,5
37840,-3.55,-6.56,5.22,0,4,5
37860,-3.54,-7.01,5.27,0,4,5
37880,-3.44,-7.18,5.37,0,4,5
37900,-3.73,-6.98,5.08,0,4,5
37920,-4.06,-6.78,5.12,0,4,5
37940,-3.86,-6.75,5.7,0,4,5
37960,-3.67,-6.79,5.93,0,4,5
37980,-3.7,-7.01,5.91,0,4,5
38000,-3.66,-7.23,5.75,0,4,5
38020,-3.56,-7.29,5.96,0,4,5
38040,-3.65,-7.2,6.13,0,4,5
38060,-3.74,-7.23,5.97,0,4,5
38080,-3.48,-7.34,5.86,0,4,5
38100,-3.41,-7.08,5.85,0,4,5
38120,-3.48,-7.1,5.64,0,4,5
38140,-3.37,-7.11,5.51,0,4,5
38160,-3.33,-7.0,5.45,0,4,5
38180,-3.13,-6.96,5.51,0,4,5
38200,-3.19,-7.02,5.45,0,4,5
38220,-3.27,-6.92,5.34,0,4,5
38240,-3.57,-6.81,5.01,0,4,5
38260,-3.59,-6.78,5.01,0,4,5
38280,-3.26,-7.06,5.69,0,4,5
38300,-2.83,-7.26,6.1,0,4,5
38320,-2.95,-7.22,5.84,0,4,5
38340,-3.58,-6.71,5.07,0,4,5
38360,-4.05,-6.31,4.88,0,4,5
38380,-3.88,-6.53,5.19,0,4,5
38400,-3.09,-7.1,5.67,0,4,5
38420,-2.85,-7.44,5.75,0,4,5
38440,-3.03,-7.49,5.92,0,4,5
38460,-3.39,-7.16,5.59,0,4,5
38480,-3.53,-6.85,5.19,0,4,5
38500,-3.4,-6.69,5.53,0,4,5
38520,-3.21,-6.79,5.74,0,4,5
38540,-3.42,-7.06,5.84,0,4,5
38560,-3.19,-7.64,5.7,0,4,5
38580,-3.42,-7.44,5.43,0,4,5
38600,-3.77,-6.6,5.33,0,4,5
38620,-4.0,-5.92,5.59,0,4,5
38640,-3.82,-6.05,6.0,0,4,5
38660,-3.29,-6.54,6.32,0,4,5
36780,-4.39,1.78,5.86,0,4,6
36800,-1.32,5.04,11.32,0,4,6
36820,7.2,-3.02,11.86,0,4,6
36840,10.91,-14.8,-1.02,0,4,6
36860,6.24,-18.92,-2.85,0,4,6
36880,15.75,-19.62,2.08,0,4,6
36900,12.98,-19.62,-6.21,0,4,6
36920,5.24,-19.62,3.09,0,4,6
36940,10.64,-11.21,13.27,0,4,6
36960,8.13,-9.59,19.62,0,4,6
36980,4.4,-10.07,19.62,0,4,6
37000,-0.43,-13.73,19.62,0,4,6
37020,-3.12,-13.21,15.39,0,4,6
37040,-8.67,-1.3,19.13,0,4,6
37060,-13.88,4.83,15.29,0,4,6
37080,-10.43,7.41,12.09,0,4,6
37100,-3.61,1.5,12.17,0,4,6
37120,0.03,-7.1,11.77,0,4,6
37140,-1.93,-9.27,7.86,0,4,6
37160,-4.99,-7.46,4.85,0,4,6
37180,-5.41,-4.2,1.88,0,4,6
37200,-6.18,-0.44,-0.24,0,4,6
37220,-6.07,0.11,0.94,0,4,6
37240,-3.37,-0.99,1.64,0,4,6
37260,-3.1,-3.73,2.77,0,4,6
37280,-3.53,-5.86,2.42,0,4,6
37300,-3.94,-6.96,0.97,0,4,6
37320,-3.58,-6.49,1.23,0,4,6
37340,-3.11,-5.45,2.92,0,4,6
37360,-2.46,-4.31,3.96,0,4,6
37380,-3.61,-4.21,4.64,0,4,6
37400,-4.64,-4.67,4.64,0,4,6
37420,-5.37,-5.69,4.99,0,4,6
37440,-4.38,-6.71,6.09,0,4,6
37460,-3.44,-7.36,7.11,0,4,6
37480,-3.64,-8.12,7.53,0,4,6
37500,-4.18,-7.98,7.25,0,4,6
37520,-5.26,-7.19,7.28,0,4,6
37540,-5.32,-6.98,7.47,0,4,6
37560,-4.38,-7.19,7.54,0,4,6
37580,-3.57,-7.53,8.15,0,4,6
37600,-3.57,-7.02,7.86,0,4,6
37620,-4.53,-6.04,7.04,0,4,6
37640,-4.4,-5.54,6.77,0,4,6
37660,-3.64,-5.65,6.74,0,4,6
37680,-3.31,-5.95,6.33,0,4,6
37700,-3.46,-6.15,6.03,0,4,6
37720,-3.46,-6.2,6.09,0,4,6
37740,-3.4,-6.46,5.82,0,4,6
37760,-3.57,-6.47,5.13,0,4,6
37780,-3.69,-6.25,4.98,0,4,6
37800,-3.57,-6.11,5.45,0,4,6
37820,-3.41,-6.1,5.45,0,4,6
37840,-3.55,-6.56,5.22,0,4,6
37860,-3.54,-7.01,5.27,0,4,6
37880,-3.44,-7.18,5.37,0,4,6
37900,-3.73,-6.98,5.08,0,4,6
37920,-4.06,-6.78,5.12,0,4,6
37940,-3.86,-6.75,5.7,0,4,6
37960,-3.67,-6.79,5.93,0,4,6
37980,-3.7,-7.01,5.91,0,4,6
38000,-3.66,-7.23,5.75,0,4,6
38020,-3.56,-7.29,5.96,0,4,6
38040,-3.65,-7.2,6.13,0,4,6
38060,-3.74,-7.23,5.97,0,4,6
38080,-3.48,-7.34,5.86,0,4,6
38100,-3.41,-7.08,5.85,0,4,6
38120,-3.48,-7.1,5.64,0,4,6
38140,-3.37,-7.11,5.51,0,4,6
38160,-3.33,-7.0,5.45,0,4,6
38180,-3.13,-6.96,5.51,0,4,6
38200,-3.19,-7.02,5.45,0,4,6
38220,-3.27,-6.92,5.34,0,4,6
38240,-3.57,-6.81,5.01,0,4,6
38260,-3.59,-6.78,5.01,0,4,6
38280,-3.26,-7.06,5.69,0,4,6
38300,-2.83,-7.26,6.1,0,4,6
38320,-2.95,-7.22,5.84,0,4,6
38340,-3.58,-6.71,5.07,0,4,6
38360,-4.05,-6.31,4.88,0,4,6
38380,-3.88,-6.53,5.19,0,4,6
38400,-3.09,-7.1,5.67,0,4,6
38420,-2.85,-7.44,5.75,0,4,6
38440,-3.03,-7.49,5.92,0,4,6
38460,-3.39,-7.16,5.59,0,4,6
38480,-3.53,-6.85,5.19,0,4,6
38500,-3.4,-6.69,5.53,0,4,6
38520,-3.21,-6.79,5.74,0,4,6
38540,-3.42,-7.06,5.84,0,4,6
38560,-3.19,-7.64,5.7,0,4,6
38580,-3.42,-7.44,5.43,0,4,6
38600,-3.77,-6.6,5.33,0,4,6
38620,-4.0,-5.92,5.59,0,4,6
38640,-3.82,-6.05,6.0,0,4,6
38660,-3.29,-6.54,6.32,0,4,6
38680,-3.15,-6.54,6.76,0,4,6
38700,-3.65,-6.96,6.56,0,4,6
38720,-4.09,-6.7,6.04,0,4,6
38740,-4.22,-5.15,5.49,0,4,6
38760,-4.18,-5.4,6.18,0,4,6
36880,15.75,-19.62,2.08,0,4,7
36900,12.98,-19.62,-6.21,0,4,7
36920,5.24,-19.62,3.09,0,4,7
36940,10.64,-11.21,13.27,0,4,7
36960,8.13,-9.59,19.62,0,4,7
36980,4.4,-10.07,19.62,0,4,7
37000,-0.43,-13.73,19.62,0,4,7
37020,-3.12,-13.21,15.39,0,4,7
37040,-8.67,-1.3,19.13,0,4,7
37060,-13.88,4.83,15.29,0,4,7
37080,-10.43,7.41,12.09,0,4,7
37100,-3.61,1.5,12.17,0,4,7
37120,0.03,-7.1,11.77,0,4,7
37140,-1.93,-9.27,7.86,0,4,7
37160,-4.99,-7.46,4.85,0,4,7
37180,-5.41,-4.2,1.88,0,4,7
37200,-6.18,-0.44,-0.24,0,4,7
37220,-6.07,0.11,0.94,0,4,7
37240,-3.37,-0.99,1.64,0,4,7
37260,-3.1,-3.73,2.77,0,4,7
37280,-3.53,-5.86,2.42,0,4,7
37300,-3.94,-6.96,0.97,0,4,7
37320,-3.58,-6.49,1.23,0,4,7
37340,-3.11,-5.45,2.92,0,4,7
37360,-2.46,-4.31,3.96,0,4,7
37380,-3.61,-4.21,4.64,0,4,7
37400,-4.64,-4.67,4.64,0,4,7
37420,-5.37,-5.69,4.99,0,4,7
37440,-4.38,-6.71,6.09,0,4,7
37460,-3.44,-7.36,7.11,0,4,7
37480,-3.64,-8.12,7.53,0,4,7
37500,-4.18,-7.98,7.25,0,4,7
37520,-5.26,-7.19,7.28,0,4,7
37540,-5.32,-6.98,7.47,0,4,7
37560,-4.38,-7.19,7.54,0,4,7
37580,-3.57,-7.53,8.15,0,4,7
37600,-3.57,-7.02,7.86,0,4,7
37620,-4.53,-6.04,7.04,0,4,7
37640,-4.4,-5.54,6.77,0,4,7
37660,-3.64,-5.65,6.74,0,4,7
37680,-3.31,-5.95,6.33,0,4,7
37700,-3.46,-6.15,6.03,0,4,7
37720,-3.46,-6.2,6.09,0,4,7
37740,-3.4,-6.46,5.82,0,4,7
37760,-3.57,-6.47,5.13,0,4,7
37780,-3.69,-6.25,4.98,0,4,7
37800,-3.57,-6.11,5.45,0,4,7
37820,-3.41,-6.1,5.45,0,4,7
37840,-3.55,-6.56,5.22,0,4,7
37860,-3.54,-7.01,5.27,0,4,7
37880,-3.44,-7.18,5.37,0,4,7
37900,-3.73,-6.98,5.08,0,4,7
37920,-4.06,-6.78,5.12,0,4,7
37940,-3.86,-6.75,5.7,0,4,7
37960,-3.67,-6.79,5.93,0,4,7
37980,-3.7,-7.01,5.91,0,4,7
38000,-3.66,-7.23,5.75,0,4,7
38020,-3.56,-7.29,5.96,0,4,7
38040,-3.65,-7.2,6.13,0,4,7
38060,-3.74,-7.23,5.97,0,4,7
38080,-3.48,-7.34,5.86,0,4,7
38100,-3.41,-7.08,5.85,0,4,7
38120,-3.48,-7.1,5.64,0,4,7
38140,-3.37,-7.11,5.51,0,4,7
38160,-3.33,-7.0,5.45,0,4,7
38180,-3.13,-6.96,5.51,0,4,7
38200,-3.19,-7.02,5.45,0,4,7
38220,-3.27,-6.92,5.34,0,4,7
38240,-3.57,-6.81,5.01,0,4,7
38260,-3.59,-6.78,5.01,0,4,7
38280,-3.26,-7.06,5.69,0,4,7
38300,-2.83,-7.26,6.1,0,4,7
38320,-2.95,-7.22,5.84,0,4,7
38340,-3.58,-6.71,5.07,0,4,7
38360,-4.05,-6.31,4.88,0,4,7
38380,-3.88,-6.53,5.19,0,4,7
38400,-3.09,-7.1,5.67,0,4,7
38420,-2.85,-7.44,5.75,0,4,7
38440,-3.03,-7.49,5.92,0,4,7
38460,-3.39,-7.16,5.59,0,4,7
38480,-3.53,-6.85,5.19,0,4,7
38500,-3.4,-6.69,5.53,0,4,7
38520,-3.21,-6.79,5.74,0,4,7
38540,-3.42,-7.06,5.84,0,4,7
38560,-3.19,-7.64,5.7,0,4,7
38580,-3.42,-7.44,5.43,0,4,7
38600,-3.77,-6.6,5.33,0,4,7
38620,-4.0,-5.92,5.59,0,4,7
38640,-3.82,-6.05,6.0,0,4,7
38660,-3.29,-6.54,6.32,0,4,7
38680,-3.15,-6.54,6.76,0,4,7
38700,-3.65,-6.96,6.56,0,4,7
38720,-4.09,-6.7,6.04,0,4,7
38740,-4.22,-5.15,5.49,0,4,7
38760,-4.18,-5.4,6.18,0,4,7
38780,-3.17,-7.28,6.21,0,4,7
38800,-1.26,-7.75,5.73,0,4,7
38820,0.11,-7.49,4.78,0,4,7
38840,-0.01,-7.48,3.81,0,4,7
38860,-0.23,-8.16,2.7,0,4,7
36980,4.4,-10.07,19.62,0,4,8
37000,-0.43,-13.73,19.62,0,4,8
37020,-3.12,-13.21,15.39,0,4,8
37040,-8.67,-1.3,19.13,0,4,8
37060,-13.88,4.83,15.29,0,4,8
37080,-10.43,7.41,12.09,0,4,8
37100,-3.61,1.5,12.17,0,4,8
37120,0.03,-7.1,11.77,0,4,8
37140,-1.93,-9.27,7.86,0,4,8
37160,-4.99,-7.46,4.85,0,4,8
37180,-5.41,-4.2,1.88,0,4,8
37200,-6.18,-0.44,-0.24,0,4,8
37220,-6.07,0.11,0.94,0,4,8
37240,-3.37,-0.99,1.64,0,4,8
37260,-3.1,-3.73,2.77,0,4,8
37280,-3.53,-5.86,2.42,0,4,8
37300,-3.94,-6.96,0.97,0,4,8
37320,-3.58,-6.49,1.23,0,4,8
37340,-3.11,-5.45,2.92,0,4,8
37360,-2.46,-4.31,3.96,0,4,8
37380,-3.61,-4.21,4.64,0,4,8
37400,-4.64,-4.67,4.64,0,4,8
37420,-5.37,-5.69,4.99,0,4,8
37440,-4.38,-6.71,6.09,0,4,8
37460,-3.44,-7.36,7.11,0,4,8
37480,-3.64,-8.12,7.53,0,4,8
37500,-4.18,-7.98,7.25,0,4,8
37520,-5.26,-7.19,7.28,0,4,8
37540,-5.32,-6.98,7.47,0,4,8
37560,-4.38,-7.19,7.54,0,4,8
37580,-3.57,-7.53,8.15,0,4,8
37600,-3.57,-7.02,7.86,0,4,8
37620,-4.53,-6.04,7.04,0,4,8
37640,-4.4,-5.54,6.77,0,4,8
37660,-3.64,-5.65,6.74,0,4,8
37680,-3.31,-5.95,6.33,0,4,8
37700,-3.46,-6.15,6.03,0,4,8
37720,-3.46,-6.2,6.09,0,4,8
37740,-3.4,-6.46,5.82,0,4,8
37760,-3.57,-6.47,5.13,0,4,8
37780,-3.69,-6.25,4.98,0,4,8
37800,-3.57,-6.11,5.45,0,4,8
37820,-3.41,-6.1,5.45,0,4,8
37840,-3.55,-6.56,5.22,0,4,8
37860,-3.54,-7.01,5.27,0,4,8
37880,-3.44,-7.18,5.37,0,4,8
37900,-3.73,-6.98,5.08,0,4,8
37920,-4.06,-6.78,5.12,0,4,8
37940,-3.86,-6.75,5.7,0,4,8
37960,-3.67,-6.79,5.93,0,4,8
37980,-3.7,-7.01,5.91,0,4,8
38000,-3.66,-7.23,5.75,0,4,8
38020,-3.56,-7.29,5.96,0,4,8
38040,-3.65,-7.2,6.13,0,4,8
38060,-3.74,-7.23,5.97,0,4,8
38080,-3.48,-7.34,5.86,0,4,8
38100,-3.41,-7.08,5.85,0,4,8
38120,-3.48,-7.1,5.64,0,4,8
38140,-3.37,-7.11,5.51,0,4,8
38160,-3.33,-7.0,5.45,0,4,8
38180,-3.13,-6.96,5.51,0,4,8
38200,-3.19,-7.02,5.45,0,4,8
38220,-3.27,-6.92,5.34,0,4,8
38240,-3.57,-6.81,5.01,0,4,8
38260,-3.59,-6.78,5.01,0,4,8
38280,-3.26,-7.06,5.69,0,4,8
38300,-2.83,-7.26,6.1,0,4,8
38320,-2.95,-7.22,5.84,0,4,8
38340,-3.58,-6.71,5.07,0,4,8
38360,-4.05,-6.31,4.88,0,4,8
38380,-3.88,-6.53,5.19,0,4,8
38400,-3.09,-7.1,5.67,0,4,8
38420,-2.85,-7.44,5.75,0,4,8
38440,-3.03,-7.49,5.92,0,4,8
38460,-3.39,-7.16,5.59,0,4,8
38480,-3.53,-6.85,5.19,0,4,8
38500,-3.4,-6.69,5.53,0,4,8
38520,-3.21,-6.79,5.74,0,4,8
38540,-3.42,-7.06,5.84,0,4,8
38560,-3.19,-7.64,5.7,0,4,8
38580,-3.42,-7.44,5.43,0,4,8
38600,-3.77,-6.6,5.33,0,4,8
38620,-4.0,-5.92,5.59,0,4,8
38640,-3.82,-6.05,6.0,0,4,8
38660,-3.29,-6.54,6.32,0,4,8
38680,-3.15,-6.54,6.76,0,4,8
38700,-3.65,-6.96,6.56,0,4,8
38720,-4.09,-6.7,6.04,0,4,8
38740,-4.22,-5.15,5.49,0,4,8
38760,-4.18,-5.4,6.18,0,4,8
38780,-3.17,-7.28,6.21,0,4,8
38800,-1.26,-7.75,5.73,0,4,8
38820,0.11,-7.49,4.78,0,4,8
38840,-0.01,-7.48,3.81,0,4,8
38860,-0.23,-8.16,2.7,0,4,8
38880,0.34,-10.72,1.91,0,4,8
38900,2.06,-12.44,1.46,0,4,8
38920,2.96,-13.04,3.17,0,4,8
38940,3.32,-13.5,2.57,0,4,8
38960,0.89,-12.42,-0.37,0,4,8
37080,-10.43,7.41,12.09,0,4,9
37100,-3.61,1.5,12.17,0,4,9
37120,0.03,-7.1,11.77,0,4,9
37140,-1.93,-9.27,7.86,0,4,9
37160,-4.99,-7.46,4.85,0,4,9
37180,-5.41,-4.2,1.88,0,4,9
37200,-6.18,-0.44,-0.24,0,4,9
37220,-6.07,0.11,0.94,0,4,9
37240,-3.37,-0.99,1.64,0,4,9
37260,-3.1,-3.73,2.77,0,4,9
37280,-3.53,-5.86,2.42,0,4,9
37300,-3.94,-6.96,0.97,0,4,9
37320,-3.58,-6.49,1.23,0,4,9
37340,-3.11,-5.45,2.92,0,4,9
37360,-2.46,-4.31,3.96,0,4,9
37380,-3.61,-4.21,4.64,0,4,9
37400,-4.64,-4.67,4.64,0,4,9
37420,-5.37,-5.69,4.99,0,4,9
37440,-4.38,-6.71,6.09,0,4,9
37460,-3.44,-7.36,7.11,0,4,9
37480,-3.64,-8.12,7.53,0,4,9
37500,-4.18,-7.98,7.25,0,4,9
37520,-5.26,-7.19,7.28,0,4,9
37540,-5.32,-6.98,7.47,0,4,9
37560,-4.38,-7.19,7.54,0,4,9
37580,-3.57,-7.53,8.15,0,4,9
37600,-3.57,-7.02,7.86,0,4,9
37620,-4.53,-6.04,7.04,0,4,9
37640,-4.4,-5.54,6.77,0,4,9
37660,-3.64,-5.65,6.74,0,4,9
37680,-3.31,-5.95,6.33,0,4,9
37700,-3.46,-6.15,6.03,0,4,9
37720,-3.46,-6.2,6.09,0,4,9
37740,-3.4,-6.46,5.82,0,4,9
37760,-3.57,-6.47,5.13,0,4,9
37780,-3.69,-6.25,4.98,0,4,9
37800,-3.57,-6.11,5.45,0,4,9
37820,-3.41,-6.1,5.45,0,4,9
37840,-3.55,-6.56,5.22,0,4,9
37860,-3.54,-7.01,5.27,0,4,9
37880,-3.44,-7.18,5.37,0,4,9
37900,-3.73,-6.98,5.08,0,4,9
37920,-4.06,-6.78,5.12,0,4,9
37940,-3.86,-6.75,5.7,0,4,9
37960,-3.67,-6.79,5.93,0,4,9
37980,-3.7,-7.01,5.91,0,4,9
38000,-3.66,-7.23,5.75,0,4,9
38020,-3.56,-7.29,5.96,0,4,9
38040,-3.65,-7.2,6.13,0,4,9
38060,-3.74,-7.23,5.97,0,4,9
38080,-3.48,-7.34,5.86,0,4,9
38100,-3.41,-7.08,5.85,0,4,9
38120,-3.48,-7.1,5.64,0,4,9
38140,-3.37,-7.11,5.51,0,4,9
38160,-3.33,-7.0,5.45,0,4,9
38180,-3.13,-6.96,5.51,0,4,9
38200,-3.19,-7.02,5.45,0,4,9
38220,-3.27,-6.92,5.34,0,4,9
38240,-3.57,-6.81,5.01,0,4,9
38260,-3.59,-6.78,5.01,0,4,9
38280,-3.26,-7.06,5.69,0,4,9
38300,-2.83,-7.26,6.1,0,4,9
38320,-2.95,-7.22,5.84,0,4,9
38340,-3.58,-6.71,5.07,0,4,9
38360,-4.05,-6.31,4.88,0,4,9
38380,-3.88,-6.53,5.19,0,4,9
38400,-3.09,-7.1,5.67,0,4,9
38420,-2.85,-7.44,5.75,0,4,9
38440,-3.03,-7.49,5.92,0,4,9
38460,-3.39,-7.16,5.59,0,4,9
38480,-3.53,-6.85,5.19,0,4,9
38500,-3.4,-6.69,5.53,0,4,9
38520,-3.21,-6.79,5.74,0,4,9
38540,-3.42,-7.06,5.84,0,4,9
38560,-3.19,-7.64,5.7,0,4,9
38580,-3.42,-7.44,5.43,0,4,9
38600,-3.77,-6.6,5.33,0,4,9
38620,-4.0,-5.92,5.59,0,4,9
38640,-3.82,-6.05,6.0,0,4,9
38660,-3.29,-6.54,6.32,0,4,9
38680,-3.15,-6.54,6.76,0,4,9
38700,-3.65,-6.96,6.56,0,4,9
38720,-4.09,-6.7,6.04,0,4,9
38740,-4.22,-5.15,5.49,0,4,9
38760,-4.18,-5.4,6.18,0,4,9
38780,-3.17,-7.28,6.21,0,4,9
38800,-1.26,-7.75,5.73,0,4,9
38820,0.11,-7.49,4.78,0,4,9
38840,-0.01,-7.48,3.81,0,4,9
38860,-0.23,-8.16,2.7,0,4,9
38880,0.34,-10.72,1.91,0,4,9
38900,2.06,-12.44,1.46,0,4,9
38920,2.96,-13.04,3.17,0,4,9
38940,3.32,-13.5,2.57,0,4,9
38960,0.89,-12.42,-0.37,0,4,9
38980,-1.42,-10.35,-1.4,0,4,9
39000,-1.19,-8.56,-0.46,0,4,9
39020,-0.46,-8.55,1.06,0,4,9
39040,0.39,-8.83,0.35,0,4,9
39060,0.47,-9.81,-0.55,0,4,9
37180,-5.41,-4.2,1.88,0,4,10
37200,-6.18,-0.44,-0.24,0,4,10
37220,-6.07,0.11,0.94,0,4,10
37240,-3.37,-0.99,1.64,0,4,10
37260,-3.1,-3.73,2.77,0,4,10
37280,-3.53,-5.86,2.42,0,4,10
37300,-3.94,-6.96,0.97,0,4,10
37320,-3.58,-6.49,1.23,0,4,10
37340,-3.11,-5.45,2.92,0,4,10
37360,-2.46,-4.31,3.96,0,4,10
37380,-3.61,-4.21,4.64,0,4,10
37400,-4.64,-4.67,4.64,0,4,10
37420,-5.37,-5.69,4.99,0,4,10
37440,-4.38,-6.71,6.09,0,4,10
37460,-3.44,-7.36,7.11,0,4,10
37480,-3.64,-8.12,7.53,0,4,10
37500,-4.18,-7.98,7.25,0,4,10
37520,-5.26,-7.19,7.28,0,4,10
37540,-5.32,-6.98,7.47,0,4,10
37560,-4.38,-7.19,7.54,0,4,10
37580,-3.57,-7.53,8.15,0,4,10
37600,-3.57,-7.02,7.86,0,4,10
37620,-4.53,-6.04,7.04,0,4,10
37640,-4.4,-5.54,6.77,0,4,10
37660,-3.64,-5.65,6.74,0,4,10
37680,-3.31,-5.95,6.33,0,4,10
37700,-3.46,-6.15,6.03,0,4,10
37720,-3.46,-6.2,6.09,0,4,10
37740,-3.4,-6.46,5.82,0,4,10
37760,-3.57,-6.47,5.13,0,4,10
37780,-3.69,-6.25,4.98,0,4,10
37800,-3.57,-6.11,5.45,0,4,10
37820,-3.41,-6.1,5.45,0,4,10
37840,-3.55,-6.56,5.22,0,4,10
37860,-3.54,-7.01,5.27,0,4,10
37880,-3.44,-7.18,5.37,0,4,10
37900,-3.73,-6.98,5.08,0,4,10
37920,-4.06,-6.78,5.12,0,4,10
37940,-3.86,-6.75,5.7,0,4,10
37960,-3.67,-6.79,5.93,0,4,10
37980,-3.7,-7.01,5.91,0,4,10
38000,-3.66,-7.23,5.75,0,4,10
38020,-3.56,-7.29,5.96,0,4,10
38040,-3.65,-7.2,6.13,0,4,10
38060,-3.74,-7.23,5.97,0,4,10
38080,-3.48,-7.34,5.86,0,4,10
38100,-3.41,-7.08,5.85,0,4,10
38120,-3.48,-7.1,5.64,0,4,10
38140,-3.37,-7.11,5.51,0,4,10
38160,-3.33,-7.0,5.45,0,4,10
38180,-3.13,-6.96,5.51,0,4,10
38200,-3.19,-7.02,5.45,0,4,10
38220,-3.27,-6.92,5.34,0,4,10
38240,-3.57,-6.81,5.01,0,4,10
38260,-3.59,-6.78,5.01,0,4,10
38280,-3.26,-7.06,5.69,0,4,10
38300,-2.83,-7.26,6.1,0,4,10
38320,-2.95,-7.22,5.84,0,4,10
38340,-3.58,-6.71,5.07,0,4,10
38360,-4.05,-6.31,4.88,0,4,10
38380,-3.88,-6.53,5.19,0,4,10
38400,-3.09,-7.1,5.67,0,4,10
38420,-2.85,-7.44,5.75,0,4,10
38440,-3.03,-7.49,5.92,0,4,10
38460,-3.39,-7.16,5.59,0,4,10
38480,-3.53,-6.85,5.19,0,4,10
38500,-3.4,-6.69,5.53,0,4,10
38520,-3.21,-6.79,5.74,0,4,10
38540,-3.42,-7.06,5.84,0,4,10
38560,-3.19,-7.64,5.7,0,4,10
38580,-3.42,-7.44,5.43,0,4,10
38600,-3.77,-6.6,5.33,0,4,10
38620,-4.0,-5.92,5.59,0,4,10
38640,-3.82,-6.05,6.0,0,4,10
38660,-3.29,-6.54,6.32,0,4,10
38680,-3.15,-6.54,6.76,0,4,10
38700,-3.65,-6.96,6.56,0,4,10
38720,-4.09,-6.7,6.04,0,4,10
38740,-4.22,-5.15,5.49,0,4,10
38760,-4.18,-5.4,6.18,0,4,10
38780,-3.17,-7.28,6.21,0,4,10
38800,-1.26,-7.75,5.73,0,4,10
38820,0.11,-7.49,4.78,0,4,10
38840,-0.01,-7.48,3.81,0,4,10
38860,-0.23,-8.16,2.7,0,4,10
38880,0.34,-10.72,1.91,0,4,10
38900,2.06,-12.44,1.46,0,4,10
38920,2.96,-13.04,3.17,0,4,10
38940,3.32,-13.5,2.57,0,4,10
38960,0.89,-12.42,-0.37,0,4,10
38980,-1.42,-10.35,-1.4,0,4,10
39000,-1.19,-8.56,-0.46,0,4,10
39020,-0.46,-8.55,1.06,0,4,10
39040,0.39,-8.83,0.35,0,4,10
39060,0.47,-9.81,-0.55,0,4,10
39080,1.14,-10.95,-1.81,0,4,10
39100,0.79,-10.65,-2.69,0,4,10
39120,0.43,-10.87,-2.96,0,4,10
39140,0.76,-11.64,-3.43,0,4,10
39160,1.71,-12.07,-3.19,0,4,10
44860,-6.63,-1.74,-5.42,1,5,1
44880,-6.28,-0.95,-4.73,1,5,1
44900,-6.98,-0.8,-5.35,1,5,1
44920,-6.49,-1.32,-5.32,1,5,1
44940,-6.07,-2.01,-4.46,1,5,1
44960,-7.85,-1.09,-4.78,1,5,1
44980,-7.28,-1.71,-7.53,0,5,1
45000,-7.34,-5.04,-9.33,0,5,1
45020,-6.47,-4.29,-7.04,0,5,1
45040,-6.35,-2.56,-5.87,0,5,1
45060,-6.88,-0.67,-4.77,0,5,1
45080,-6.17,-0.67,-4.2,0,5,1
45100,-4.88,-2.55,-4.21,0,5,1
45120,-4.32,-3.87,-4.32,0,5,1
45140,-5.68,-3.75,-5.27,0,5,1
45160,-6.63,-2.62,-5.6,0,5,1
45180,-6.74,-2.11,-5.22,0,5,1
45200,-6.44,-1.75,-4.49,0,5,1
45220,-7.59,-1.41,-5.13,0,5,1
45240,-8.33,-0.81,-6.05,0,5,1
45260,-8.92,-1.07,-6.4,0,5,1
45280,-8.12,-0.78,-5.27,0,5,1
45300,-8.54,-1.19,-5.38,0,5,1
45320,-9.39,-0.86,-5.59,0,5,1
45340,-8.49,-0.59,-4.8,0,5,1
45360,-6.46,-1.07,-3.95,0,5,1
45380,-6.62,-1.71,-4.61,0,5,1
45400,-7.13,-0.59,-5.84,0,5,1
45420,-4.66,-0.72,-3.14,0,5,1
45440,-3.93,-0.91,-2.79,0,5,1
45460,-3.36,-0.64,-2.11,0,5,1
45480,-3.2,-1.85,-4.49,0,5,1
45500,-2.67,-1.59,-7.42,0,5,1
45520,0.97,-3.46,-8.16,0,5,1
45540,6.66,-10.69,-9.86,0,5,1
45560,10.78,-15.87,-6.63,0,5,1
45580,16.04,-16.72,-2.66,0,5,1
45600,8.24,-11.43,-8.39,0,5,1
45620,2.87,-12.34,-9.57,0,5,1
45640,7.71,-13.8,-7.86,0,5,1
45660,7.23,-10.75,-6.93,0,5,1
45680,8.12,-8.01,-1.42,0,5,1
45700,7.11,-8.13,-2.46,0,5,1
45720,12.71,-14.57,-6.43,0,5,1
45740,15.61,-19.58,-4.4,0,5,1
45760,15.13,-14.39,-3.84,0,5,1
45780,6.84,-10.33,-3.8,0,5,1
45800,11.52,-12.07,-3.65,0,5,1
45820,11.17,-9.2,-2.51,0,5,1
45840,11.24,-7.0,2.08,0,5,1
45860,10.01,-6.62,0.28,0,5,1
45880,2.04,-8.76,-8.08,0,5,1
45900,2.78,-9.78,-6.5,0,5,1
45920,5.07,-9.33,-4.45,0,5,1
45940,6.54,-8.14,0.27,0,5,1
45960,2.28,-8.11,-3.45,0,5,1
45980,0.4,-7.32,-3.33,0,5,1
46000,0.86,-7.22,-4.34,0,5,1
46020,2.3,-7.09,-3.81,0,5,1
46040,3.54,-8.67,-2.42,0,5,1
46060,3.53,-10.67,-4.37,0,5,1
46080,3.22,-9.76,-5.58,0,5,1
46100,2.2,-7.59,-5.01,0,5,1
46120,2.79,-7.43,-3.63,0,5,1
46140,3.75,-7.83,-4.36,0,5,1
46160,4.7,-8.44,-3.49,0,5,1
46180,5.42,-8.73,-3.21,0,5,1
46200,4.2,-8.31,-4.82,0,5,1
46220,4.21,-7.45,-3.5,0,5,1
46240,4.28,-7.02,-2.55,0,5,1
46260,4.38,-7.74,-3.5,0,5,1
46280,4.62,-8.56,-4.43,0,5,1
46300,5.38,-7.92,-2.63,0,5,1
46320,4.62,-7.81,-2.59,0,5,1
46340,4.54,-8.89,-3.47,0,5,1
46360,4.69,-8.96,-3.74,0,5,1
46380,4.45,-8.01,-3.03,0,5,1
46400,4.33,-7.7,-2.76,0,5,1
46420,4.49,-8.41,-3.3,0,5,1
46440,4.0,-8.68,-3.72,0,5,1
46460,4.05,-7.97,-2.8,0,5,1
46480,4.08,-7.87,-2.69,0,5,1
46500,4.43,-8.5,-3.77,0,5,1
46520,4.13,-8.88,-3.89,0,5,1
46540,4.6,-8.39,-3.2,0,5,1
46560,4.45,-8.55,-3.02,0,5,1
46580,4.19,-8.81,-4.07,0,5,1
46600,3.92,-8.69,-4.0,0,5,1
46620,4.31,-8.27,-3.27,0,5,1
46640,4.45,-8.7,-3.01,0,5,1
46660,3.96,-8.97,-4.64,0,5,1
46680,3.96,-8.35,-3.83,0,5,1
46700,4.3,-7.84,-2.88,0,5,1
46720,4.33,-8.28,-3.36,0,5,1
46740,3.81,-8.49,-4.45,0,5,1
46760,4.3,-8.1,-3.26,0,5,1
46780,4.58,-8.16,-2.93,0,5,1
46800,4.69,-8.7,-3.82,0,5,1
46820,4.62,-8.74,-3.86,0,5,1
46840,4.6,-8.58,-3.86,0,5,1
44960,-7.85,-1.09,-4.78,1,5,2
44980,-7.28,-1.71,-7.53,0,5,2
45000,-7.34,-5.04,-9.33,0,5,2
45020,-6.47,-4.29,-7.04,0,5,2
45040,-6.35,-2.56,-5.87,0,5,2
45060,-6.88,-0.67,-4.77,0,5,2
45080,-6.17,-0.67,-4.2,0,5,2
45100,-4.88,-2.55,-4.21,0,5,2
45120,-4.32,-3.87,-4.32,0,5,2
45140,-5.68,-3.75,-5.27,0,5,2
45160,-6.63,-2.62,-5.6,0,5,2
45180,-6.74,-2.11,-5.22,0,5,2
45200,-6.44,-1.75,-4.49,0,5,2
45220,-7.59,-1.41,-5.13,0,5,2
45240,-8.33,-0.81,-6.05,0,5,2
45260,-8.92,-1.07,-6.4,0,5,2
45280,-8.12,-0.78,-5.27,0,5,2
45300,-8.54,-1.19,-5.38,0,5,2
45320,-9.39,-0.86,-5.59,0,5,2
45340,-8.49,-0.59,-4.8,0,5,2
45360,-6.46,-1.07,-3.95,0,5,2
45380,-6.62,-1.71,-4.61,0,5,2
45400,-7.13,-0.59,-5.84,0,5,2
45420,-4.66,-0.72,-3.14,0,5,2
45440,-3.93,-0.91,-2.79,0,5,2
45460,-3.36,-0.64,-2.11,0,5,2
45480,-3.2,-1.85,-4.49,0,5,2
45500,-2.67,-1.59,-7.42,0,5,2
45520,0.97,-3.46,-8.16,0,5,2
45540,6.66,-10.69,-9.86,0,5,2
45560,10.78,-15.87,-6.63,0,5,2
45580,16.04,-16.72,-2.66,0,5,2
45600,8.24,-11.43,-8.39,0,5,2
45620,2.87,-12.34,-9.57,0,5,2
45640,7.71,-13.8,-7.86,0,5,2
45660,7.23,-10.75,-6.93,0,5,2
45680,8.12,-8.01,-1.42,0,5,2
45700,7.11,-8.13,-2.46,0,5,2
45720,12.71,-14.57,-6.43,0,5,2
45740,15.61,-19.58,-4.4,0,5,2
45760,15.13,-14.39,-3.84,0,5,2
45780,6.84,-10.33,-3.8,0,5,2
45800,11.52,-12.07,-3.65,0,5,2
45820,11.17,-9.2,-2.51,0,5,2
45840,11.24,-7.0,2.08,0,5,2
45860,10.01,-6.62,0.28,0,5,2
45880,2.04,-8.76,-8.08,0,5,2
45900,2.78,-9.78,-6.5,0,5,2
45920,5.07,-9.33,-4.45,0,5,2
45940,6.54,-8.14,0.27,0,5,2
45960,2.28,-8.11,-3.45,0,5,2
45980,0.4,-7.32,-3.33,0,5,2
46000,0.86,-7.22,-4.34,0,5,2
46020,2.3,-7.09,-3.81,0,5,2
46040,3.54,-8.67,-2.42,0,5,2
46060,3.53,-10.67,-4.37,0,5,2
46080,3.22,-9.76,-5.58,0,5,2
46100,2.2,-7.59,-5.01,0,5,2
46120,2.79,-7.43,-3.63,0,5,2
46140,3.75,-7.83,-4.36,0,5,2
46160,4.7,-8.44,-3.49,0,5,2
46180,5.42,-8.73,-3.21,0,5,2
46200,4.2,-8.31,-4.82,0,5,2
46220,4.21,-7.45,-3.5,0,5,2
46240,4.28,-7.02,-2.55,0,5,2
46260,4.38,-7.74,-3.5,0,5,2
46280,4.62,-8.56,-4.43,0,5,2
46300,5.38,-7.92,-2.63,0,5,2
46320,4.62,-7.81,-2.59,0,5,2
46340,4.54,-8.89,-3.47,0,5,2
46360,4.69,-8.96,-3.74,0,5,2
46380,4.45,-8.01,-3.03,0,5,2
46400,4.33,-7.7,-2.76,0,5,2
46420,4.49,-8.41,-3.3,0,5,2
46440,4.0,-8.68,-3.72,0,5,2
46460,4.05,-7.97,-2.8,0,5,2
46480,4.08,-7.87,-2.69,0,5,2
46500,4.43,-8.5,-3.77,0,5,2
46520,4.13,-8.88,-3.89,0,5,2
46540,4.6,-8.39,-3.2,0,5,2
46560,4.45,-8.55,-3.02,0,5,2
46580,4.19,-8.81,-4.07,0,5,2
