Accel_X,Accel_Y,Accel_Z,Fall_Indicator,Event_ID,Window_Number
-8.35,0.91,-5.87,1,1,1
-8.6,1.27,-5.69,1,1,1
-10.42,1.57,-4.88,1,1,1
-8.31,1.96,-5.1,1,1,1
-7.69,1.58,-3.57,1,1,1
-7.51,1.2,-3.14,1,1,1
-8.11,0.33,-4.79,1,1,1
-9.16,0.35,-5.9,0,1,1
-8.67,-0.55,-6.36,0,1,1
-8.65,0.2,-5.58,0,1,1
-6.47,0.49,-4.58,0,1,1
-5.85,0.51,-4.05,0,1,1
-7.39,0.8,-4.03,0,1,1
-7.28,0.19,-4.56,0,1,1
-6.37,0.08,-2.43,0,1,1
-4.41,-0.71,-0.67,0,1,1
-4.38,-1.36,-0.75,0,1,1
-5.81,-1.75,-2.93,0,1,1
-8.22,-1.88,-4.5,0,1,1
-5.57,-1.86,-3.17,0,1,1
-5.81,-1.59,-2.75,0,1,1
-5.35,-2.36,-3.38,0,1,1
-5.39,-2.15,-2.95,0,1,1
-6.35,-2.88,-2.73,0,1,1
-10.28,-2.85,-0.31,0,1,1
-5.65,-1.24,-2.35,0,1,1
-4.87,0.32,-1.94,0,1,1
-5.69,0.72,-2.89,0,1,1
-7.24,0.04,-2.61,0,1,1
-8.3,-2.31,-1.12,0,1,1
-9.56,-3.88,0.58,0,1,1
-11.94,-4.25,-1.15,0,1,1
-12.81,-5.21,-4.99,0,1,1
-13.9,-6.12,-4.52,0,1,1
-14.32,-5.24,-8.8,0,1,1
-8.97,4.74,1.89,0,1,1
-11.89,10.94,6.08,0,1,1
-9.76,6.26,14.78,0,1,1
-12.27,4.65,19.14,0,1,1
-3.77,15.85,19.62,0,1,1
-1.69,7.32,19.62,0,1,1
-1.26,-0.11,19.62,0,1,1
1.29,-1.04,19.62,0,1,1
-0.13,-1.41,19.62,0,1,1
2.0,-3.3,19.37,0,1,1
0.45,-7.15,12.77,0,1,1
2.15,-5.7,11.36,0,1,1
3.38,-3.56,9.81,0,1,1
2.12,-2.5,8.25,0,1,1
-0.6,-3.0,6.64,0,1,1
1.19,-2.17,3.84,0,1,1
2.93,-0.33,4.23,0,1,1
1.18,0.48,3.3,0,1,1
0.8,-0.68,2.3,0,1,1
1.31,-2.45,1.09,0,1,1
2.99,-5.08,3.74,0,1,1
-0.31,-1.97,2.98,0,1,1
-0.76,0.86,6.09,0,1,1
-0.81,0.38,6.65,0,1,1
0.26,-1.89,7.71,0,1,1
-1.51,-3.06,7.15,0,1,1
-3.27,-0.57,8.54,0,1,1
-4.58,0.71,10.16,0,1,1
-4.95,0.38,11.88,0,1,1
-6.77,2.09,12.17,0,1,1
-7.76,2.92,11.36,0,1,1
-9.36,3.3,10.85,0,1,1
-10.68,4.97,12.26,0,1,1
-10.57,5.45,10.98,0,1,1
-13.14,5.88,8.98,0,1,1
-12.28,5.36,7.48,0,1,1
-8.91,1.1,7.61,0,1,1
-9.79,0.19,6.88,0,1,1
-9.71,-0.32,4.56,0,1,1
-8.16,0.4,3.22,0,1,1
-7.22,0.49,4.33,0,1,1
-5.93,0.49,5.41,0,1,1
-5.49,0.05,5.25,0,1,1
-5.38,0.21,4.81,0,1,1
-4.82,-0.68,4.19,0,1,1
-3.97,-0.91,5.45,0,1,1
-4.08,-0.41,5.58,0,1,1
-5.34,-0.17,4.99,0,1,1
-5.9,-0.6,5.34,0,1,1
-5.79,-0.91,6.02,0,1,1
-6.11,-1.38,6.65,0,1,1
-5.27,-2.2,7.01,0,1,1
-5.69,-2.85,8.37,0,1,1
-5.39,-1.51,10.19,0,1,1
-5.67,-1.15,9.82,0,1,1
-6.27,-1.84,8.45,0,1,1
-5.23,-1.51,9.27,0,1,1
-5.63,-1.77,9.34,0,1,1
-5.42,-0.74,7.94,0,1,1
-5.5,-0.8,8.21,0,1,1
-5.03,-1.52,8.43,0,1,1
-4.89,-1.5,8.33,0,1,1
-4.51,-0.96,7.75,0,1,1
-4.35,-0.3,8.0,0,1,1
-4.19,-0.05,8.71,0,1,1
-7.51,1.2,-3.14,1,1,2
-8.11,0.33,-4.79,1,1,2
-9.16,0.35,-5.9,0,1,2
-8.67,-0.55,-6.36,0,1,2
-8.65,0.2,-5.58,0,1,2
-6.47,0.49,-4.58,0,1,2
-5.85,0.51,-4.05,0,1,2
-7.39,0.8,-4.03,0,1,2
-7.28,0.19,-4.56,0,1,2
-6.37,0.08,-2.43,0,1,2
-4.41,-0.71,-0.67,0,1,2
-4.38,-1.36,-0.75,0,1,2
-5.81,-1.75,-2.93,0,1,2
-8.22,-1.88,-4.5,0,1,2
-5.57,-1.86,-3.17,0,1,2
-5.81,-1.59,-2.75,0,1,2
-5.35,-2.36,-3.38,0,1,2
-5.39,-2.15,-2.95,0,1,2
-6.35,-2.88,-2.73,0,1,2
-10.28,-2.85,-0.31,0,1,2
-5.65,-1.24,-2.35,0,1,2
-4.87,0.32,-1.94,0,1,2
-5.69,0.72,-2.89,0,1,2
-7.24,0.04,-2.61,0,1,2
-8.3,-2.31,-1.12,0,1,2
-9.56,-3.88,0.58,0,1,2
-11.94,-4.25,-1.15,0,1,2
-12.81,-5.21,-4.99,0,1,2
-13.9,-6.12,-4.52,0,1,2
-14.32,-5.24,-8.8,0,1,2
-8.97,4.74,1.89,0,1,2
-11.89,10.94,6.08,0,1,2
-9.76,6.26,14.78,0,1,2
-12.27,4.65,19.14,0,1,2
-3.77,15.85,19.62,0,1,2
-1.69,7.32,19.62,0,1,2
-1.26,-0.11,19.62,0,1,2
1.29,-1.04,19.62,0,1,2
-0.13,-1.41,19.62,0,1,2
2.0,-3.3,19.37,0,1,2
0.45,-7.15,12.77,0,1,2
2.15,-5.7,11.36,0,1,2
3.38,-3.56,9.81,0,1,2
2.12,-2.5,8.25,0,1,2
-0.6,-3.0,6.64,0,1,2
1.19,-2.17,3.84,0,1,2
2.93,-0.33,4.23,0,1,2
1.18,0.48,3.3,0,1,2
0.8,-0.68,2.3,0,1,2
1.31,-2.45,1.09,0,1,2
2.99,-5.08,3.74,0,1,2
-0.31,-1.97,2.98,0,1,2
-0.76,0.86,6.09,0,1,2
-0.81,0.38,6.65,0,1,2
0.26,-1.89,7.71,0,1,2
-1.51,-3.06,7.15,0,1,2
-3.27,-0.57,8.54,0,1,2
-4.58,0.71,10.16,0,1,2
-4.95,0.38,11.88,0,1,2
-6.77,2.09,12.17,0,1,2
-7.76,2.92,11.36,0,1,2
-9.36,3.3,10.85,0,1,2
-10.68,4.97,12.26,0,1,2
-10.57,5.45,10.98,0,1,2
-13.14,5.88,8.98,0,1,2
-12.28,5.36,7.48,0,1,2
-8.91,1.1,7.61,0,1,2
-9.79,0.19,6.88,0,1,2
-9.71,-0.32,4.56,0,1,2
-8.16,0.4,3.22,0,1,2
-7.22,0.49,4.33,0,1,2
-5.93,0.49,5.41,0,1,2
-5.49,0.05,5.25,0,1,2
-5.38,0.21,4.81,0,1,2
-4.82,-0.68,4.19,0,1,2
-3.97,-0.91,5.45,0,1,2
-4.08,-0.41,5.58,0,1,2
-5.34,-0.17,4.99,0,1,2
-5.9,-0.6,5.34,0,1,2
-5.79,-0.91,6.02,0,1,2
-6.11,-1.38,6.65,0,1,2
-5.27,-2.2,7.01,0,1,2
-5.69,-2.85,8.37,0,1,2
-5.39,-1.51,10.19,0,1,2
-5.67,-1.15,9.82,0,1,2
-6.27,-1.84,8.45,0,1,2
-5.23,-1.51,9.27,0,1,2
-5.63,-1.77,9.34,0,1,2
-5.42,-0.74,7.94,0,1,2
-5.5,-0.8,8.21,0,1,2
-5.03,-1.52,8.43,0,1,2
-4.89,-1.5,8.33,0,1,2
-4.51,-0.96,7.75,0,1,2
-4.35,-0.3,8.0,0,1,2
-4.19,-0.05,8.71,0,1,2
-5.33,-0.02,6.34,0,1,2
-5.55,-0.23,4.92,0,1,2
-4.91,-0.81,5.88,0,1,2
-4.67,-0.62,7.09,0,1,2
-6.06,0.08,9.35,0,1,2
-6.47,0.49,-4.58,0,1,3
-5.85,0.51,-4.05,0,1,3
-7.39,0.8,-4.03,0,1,3
-7.28,0.19,-4.56,0,1,3
-6.37,0.08,-2.43,0,1,3
-4.41,-0.71,-0.67,0,1,3
-4.38,-1.36,-0.75,0,1,3
-5.81,-1.75,-2.93,0,1,3
-8.22,-1.88,-4.5,0,1,3
-5.57,-1.86,-3.17,0,1,3
-5.81,-1.59,-2.75,0,1,3
-5.35,-2.36,-3.38,0,1,3
-5.39,-2.15,-2.95,0,1,3
-6.35,-2.88,-2.73,0,1,3
-10.28,-2.85,-0.31,0,1,3
-5.65,-1.24,-2.35,0,1,3
-4.87,0.32,-1.94,0,1,3
-5.69,0.72,-2.89,0,1,3
-7.24,0.04,-2.61,0,1,3
-8.3,-2.31,-1.12,0,1,3
-9.56,-3.88,0.58,0,1,3
-11.94,-4.25,-1.15,0,1,3
-12.81,-5.21,-4.99,0,1,3
-13.9,-6.12,-4.52,0,1,3
-14.32,-5.24,-8.8,0,1,3
-8.97,4.74,1.89,0,1,3
-11.89,10.94,6.08,0,1,3
-9.76,6.26,14.78,0,1,3
-12.27,4.65,19.14,0,1,3
-3.77,15.85,19.62,0,1,3
-1.69,7.32,19.62,0,1,3
-1.26,-0.11,19.62,0,1,3
1.29,-1.04,19.62,0,1,3
-0.13,-1.41,19.62,0,1,3
2.0,-3.3,19.37,0,1,3
0.45,-7.15,12.77,0,1,3
2.15,-5.7,11.36,0,1,3
3.38,-3.56,9.81,0,1,3
2.12,-2.5,8.25,0,1,3
-0.6,-3.0,6.64,0,1,3
1.19,-2.17,3.84,0,1,3
2.93,-0.33,4.23,0,1,3
1.18,0.48,3.3,0,1,3
0.8,-0.68,2.3,0,1,3
1.31,-2.45,1.09,0,1,3
2.99,-5.08,3.74,0,1,3
-0.31,-1.97,2.98,0,1,3
-0.76,0.86,6.09,0,1,3
-0.81,0.38,6.65,0,1,3
0.26,-1.89,7.71,0,1,3
-1.51,-3.06,7.15,0,1,3
-3.27,-0.57,8.54,0,1,3
-4.58,0.71,10.16,0,1,3
-4.95,0.38,11.88,0,1,3
-6.77,2.09,12.17,0,1,3
-7.76,2.92,11.36,0,1,3
-9.36,3.3,10.85,0,1,3
-10.68,4.97,12.26,0,1,3
-10.57,5.45,10.98,0,1,3
-13.14,5.88,8.98,0,1,3
-12.28,5.36,7.48,0,1,3
-8.91,1.1,7.61,0,1,3
-9.79,0.19,6.88,0,1,3
-9.71,-0.32,4.56,0,1,3
-8.16,0.4,3.22,0,1,3
-7.22,0.49,4.33,0,1,3
-5.93,0.49,5.41,0,1,3
-5.49,0.05,5.25,0,1,3
-5.38,0.21,4.81,0,1,3
-4.82,-0.68,4.19,0,1,3
-3.97,-0.91,5.45,0,1,3
-4.08,-0.41,5.58,0,1,3
-5.34,-0.17,4.99,0,1,3
-5.9,-0.6,5.34,0,1,3
-5.79,-0.91,6.02,0,1,3
-6.11,-1.38,6.65,0,1,3
-5.27,-2.2,7.01,0,1,3
-5.69,-2.85,8.37,0,1,3
-5.39,-1.51,10.19,0,1,3
-5.67,-1.15,9.82,0,1,3
-6.27,-1.84,8.45,0,1,3
-5.23,-1.51,9.27,0,1,3
-5.63,-1.77,9.34,0,1,3
-5.42,-0.74,7.94,0,1,3
-5.5,-0.8,8.21,0,1,3
-5.03,-1.52,8.43,0,1,3
-4.89,-1.5,8.33,0,1,3
-4.51,-0.96,7.75,0,1,3
-4.35,-0.3,8.0,0,1,3
-4.19,-0.05,8.71,0,1,3
-5.33,-0.02,6.34,0,1,3
-5.55,-0.23,4.92,0,1,3
-4.91,-0.81,5.88,0,1,3
-4.67,-0.62,7.09,0,1,3
-6.06,0.08,9.35,0,1,3
-4.81,-0.36,7.35,0,1,3
-5.63,0.05,7.97,0,1,3
-5.77,-0.08,7.02,0,1,3
-5.73,-0.03,6.92,0,1,3
-5.81,-0.12,7.7,0,1,3
-4.41,-0.71,-0.67,0,1,4
-4.38,-1.36,-0.75,0,1,4
-5.81,-1.75,-2.93,0,1,4
-8.22,-1.88,-4.5,0,1,4
-5.57,-1.86,-3.17,0,1,4
-5.81,-1.59,-2.75,0,1,4
-5.35,-2.36,-3.38,0,1,4
-5.39,-2.15,-2.95,0,1,4
-6.35,-2.88,-2.73,0,1,4
-10.28,-2.85,-0.31,0,1,4
-5.65,-1.24,-2.35,0,1,4
-4.87,0.32,-1.94,0,1,4
-5.69,0.72,-2.89,0,1,4
-7.24,0.04,-2.61,0,1,4
-8.3,-2.31,-1.12,0,1,4
-9.56,-3.88,0.58,0,1,4
-11.94,-4.25,-1.15,0,1,4
-12.81,-5.21,-4.99,0,1,4
-13.9,-6.12,-4.52,0,1,4
-14.32,-5.24,-8.8,0,1,4
-8.97,4.74,1.89,0,1,4
-11.89,10.94,6.08,0,1,4
-9.76,6.26,14.78,0,1,4
-12.27,4.65,19.14,0,1,4
-3.77,15.85,19.62,0,1,4
-1.69,7.32,19.62,0,1,4
-1.26,-0.11,19.62,0,1,4
1.29,-1.04,19.62,0,1,4
-0.13,-1.41,19.62,0,1,4
2.0,-3.3,19.37,0,1,4
0.45,-7.15,12.77,0,1,4
2.15,-5.7,11.36,0,1,4
3.38,-3.56,9.81,0,1,4
2.12,-2.5,8.25,0,1,4
-0.6,-3.0,6.64,0,1,4
1.19,-2.17,3.84,0,1,4
2.93,-0.33,4.23,0,1,4
1.18,0.48,3.3,0,1,4
0.8,-0.68,2.3,0,1,4
1.31,-2.45,1.09,0,1,4
2.99,-5.08,3.74,0,1,4
-0.31,-1.97,2.98,0,1,4
-0.76,0.86,6.09,0,1,4
-0.81,0.38,6.65,0,1,4
0.26,-1.89,7.71,0,1,4
-1.51,-3.06,7.15,0,1,4
-3.27,-0.57,8.54,0,1,4
-4.58,0.71,10.16,0,1,4
-4.95,0.38,11.88,0,1,4
-6.77,2.09,12.17,0,1,4
-7.76,2.92,11.36,0,1,4
-9.36,3.3,10.85,0,1,4
-10.68,4.97,12.26,0,1,4
-10.57,5.45,10.98,0,1,4
-13.14,5.88,8.98,0,1,4
-12.28,5.36,7.48,0,1,4
-8.91,1.1,7.61,0,1,4
-9.79,0.19,6.88,0,1,4
-9.71,-0.32,4.56,0,1,4
-8.16,0.4,3.22,0,1,4
-7.22,0.49,4.33,0,1,4
-5.93,0.49,5.41,0,1,4
-5.49,0.05,5.25,0,1,4
-5.38,0.21,4.81,0,1,4
-4.82,-0.68,4.19,0,1,4
-3.97,-0.91,5.45,0,1,4
-4.08,-0.41,5.58,0,1,4
-5.34,-0.17,4.99,0,1,4
-5.9,-0.6,5.34,0,1,4
-5.79,-0.91,6.02,0,1,4
-6.11,-1.38,6.65,0,1,4
-5.27,-2.2,7.01,0,1,4
-5.69,-2.85,8.37,0,1,4
-5.39,-1.51,10.19,0,1,4
-5.67,-1.15,9.82,0,1,4
-6.27,-1.84,8.45,0,1,4
-5.23,-1.51,9.27,0,1,4
-5.63,-1.77,9.34,0,1,4
-5.42,-0.74,7.94,0,1,4
-5.5,-0.8,8.21,0,1,4
-5.03,-1.52,8.43,0,1,4
-4.89,-1.5,8.33,0,1,4
-4.51,-0.96,7.75,0,1,4
-4.35,-0.3,8.0,0,1,4
-4.19,-0.05,8.71,0,1,4
-5.33,-0.02,6.34,0,1,4
-5.55,-0.23,4.92,0,1,4
-4.91,-0.81,5.88,0,1,4
-4.67,-0.62,7.09,0,1,4
-6.06,0.08,9.35,0,1,4
-4.81,-0.36,7.35,0,1,4
-5.63,0.05,7.97,0,1,4
-5.77,-0.08,7.02,0,1,4
-5.73,-0.03,6.92,0,1,4
-5.81,-0.12,7.7,0,1,4
-5.53,0.27,7.4,0,1,4
-5.66,0.74,7.81,0,1,4
-5.8,1.5,8.61,0,1,4
-6.24,0.94,7.85,0,1,4
-6.14,0.41,6.71,0,1,4
-5.81,-1.59,-2.75,0,1,5
-5.35,-2.36,-3.38,0,1,5
-5.39,-2.15,-2.95,0,1,5
-6.35,-2.88,-2.73,0,1,5
-10.28,-2.85,-0.31,0,1,5
-5.65,-1.24,-2.35,0,1,5
-4.87,0.32,-1.94,0,1,5
-5.69,0.72,-2.89,0,1,5
-7.24,0.04,-2.61,0,1,5
-8.3,-2.31,-1.12,0,1,5
-9.56,-3.88,0.58,0,1,5
-11.94,-4.25,-1.15,0,1,5
-12.81,-5.21,-4.99,0,1,5
-13.9,-6.12,-4.52,0,1,5
-14.32,-5.24,-8.8,0,1,5
-8.97,4.74,1.89,0,1,5
-11.89,10.94,6.08,0,1,5
-9.76,6.26,14.78,0,1,5
-12.27,4.65,19.14,0,1,5
-3.77,15.85,19.62,0,1,5
-1.69,7.32,19.62,0,1,5
-1.26,-0.11,19.62,0,1,5
1.29,-1.04,19.62,0,1,5
-0.13,-1.41,19.62,0,1,5
2.0,-3.3,19.37,0,1,5
0.45,-7.15,12.77,0,1,5
2.15,-5.7,11.36,0,1,5
3.38,-3.56,9.81,0,1,5
2.12,-2.5,8.25,0,1,5
-0.6,-3.0,6.64,0,1,5
1.19,-2.17,3.84,0,1,5
2.93,-0.33,4.23,0,1,5
1.18,0.48,3.3,0,1,5
0.8,-0.68,2.3,0,1,5
1.31,-2.45,1.09,0,1,5
2.99,-5.08,3.74,0,1,5
-0.31,-1.97,2.98,0,1,5
-0.76,0.86,6.09,0,1,5
-0.81,0.38,6.65,0,1,5
0.26,-1.89,7.71,0,1,5
-1.51,-3.06,7.15,0,1,5
-3.27,-0.57,8.54,0,1,5
-4.58,0.71,10.16,0,1,5
-4.95,0.38,11.88,0,1,5
-6.77,2.09,12.17,0,1,5
-7.76,2.92,11.36,0,1,5
-9.36,3.3,10.85,0,1,5
-10.68,4.97,12.26,0,1,5
-10.57,5.45,10.98,0,1,5
-13.14,5.88,8.98,0,1,5
-12.28,5.36,7.48,0,1,5
-8.91,1.1,7.61,0,1,5
-9.79,0.19,6.88,0,1,5
-9.71,-0.32,4.56,0,1,5
-8.16,0.4,3.22,0,1,5
-7.22,0.49,4.33,0,1,5
-5.93,0.49,5.41,0,1,5
-5.49,0.05,5.25,0,1,5
-5.38,0.21,4.81,0,1,5
-4.82,-0.68,4.19,0,1,5
-3.97,-0.91,5.45,0,1,5
-4.08,-0.41,5.58,0,1,5
-5.34,-0.17,4.99,0,1,5
-5.9,-0.6,5.34,0,1,5
-5.79,-0.91,6.02,0,1,5
-6.11,-1.38,6.65,0,1,5
-5.27,-2.2,7.01,0,1,5
-5.69,-2.85,8.37,0,1,5
-5.39,-1.51,10.19,0,1,5
-5.67,-1.15,9.82,0,1,5
-6.27,-1.84,8.45,0,1,5
-5.23,-1.51,9.27,0,1,5
-5.63,-1.77,9.34,0,1,5
-5.42,-0.74,7.94,0,1,5
-5.5,-0.8,8.21,0,1,5
-5.03,-1.52,8.43,0,1,5
-4.89,-1.5,8.33,0,1,5
-4.51,-0.96,7.75,0,1,5
-4.35,-0.3,8.0,0,1,5
-4.19,-0.05,8.71,0,1,5
-5.33,-0.02,6.34,0,1,5
-5.55,-0.23,4.92,0,1,5
-4.91,-0.81,5.88,0,1,5
-4.67,-0.62,7.09,0,1,5
-6.06,0.08,9.35,0,1,5
-4.81,-0.36,7.35,0,1,5
-5.63,0.05,7.97,0,1,5
-5.77,-0.08,7.02,0,1,5
-5.73,-0.03,6.92,0,1,5
-5.81,-0.12,7.7,0,1,5
-5.53,0.27,7.4,0,1,5
-5.66,0.74,7.81,0,1,5
-5.8,1.5,8.61,0,1,5
-6.24,0.94,7.85,0,1,5
-6.14,0.41,6.71,0,1,5
-5.48,1.57,7.51,0,1,5
-5.03,2.62,8.26,0,1,5
-5.73,2.6,7.56,0,1,5
-5.39,2.56,6.21,0,1,5
-5.58,3.93,7.26,0,1,5
-5.65,-1.24,-2.35,0,1,6
-4.87,0.32,-1.94,0,1,6
-5.69,0.72,-2.89,0,1,6
-7.24,0.04,-2.61,0,1,6
-8.3,-2.31,-1.12,0,1,6
-9.56,-3.88,0.58,0,1,6
-11.94,-4.25,-1.15,0,1,6
-12.81,-5.21,-4.99,0,1,6
-13.9,-6.12,-4.52,0,1,6
-14.32,-5.24,-8.8,0,1,6
-8.97,4.74,1.89,0,1,6
-11.89,10.94,6.08,0,1,6
-9.76,6.26,14.78,0,1,6
-12.27,4.65,19.14,0,1,6
-3.77,15.85,19.62,0,1,6
-1.69,7.32,19.62,0,1,6
-1.26,-0.11,19.62,0,1,6
1.29,-1.04,19.62,0,1,6
-0.13,-1.41,19.62,0,1,6
2.0,-3.3,19.37,0,1,6
0.45,-7.15,12.77,0,1,6
2.15,-5.7,11.36,0,1,6
3.38,-3.56,9.81,0,1,6
2.12,-2.5,8.25,0,1,6
-0.6,-3.0,6.64,0,1,6
1.19,-2.17,3.84,0,1,6
2.93,-0.33,4.23,0,1,6
1.18,0.48,3.3,0,1,6
0.8,-0.68,2.3,0,1,6
1.31,-2.45,1.09,0,1,6
2.99,-5.08,3.74,0,1,6
-0.31,-1.97,2.98,0,1,6
-0.76,0.86,6.09,0,1,6
-0.81,0.38,6.65,0,1,6
0.26,-1.89,7.71,0,1,6
-1.51,-3.06,7.15,0,1,6
-3.27,-0.57,8.54,0,1,6
-4.58,0.71,10.16,0,1,6
-4.95,0.38,11.88,0,1,6
-6.77,2.09,12.17,0,1,6
-7.76,2.92,11.36,0,1,6
-9.36,3.3,10.85,0,1,6
-10.68,4.97,12.26,0,1,6
-10.57,5.45,10.98,0,1,6
-13.14,5.88,8.98,0,1,6
-12.28,5.36,7.48,0,1,6
-8.91,1.1,7.61,0,1,6
-9.79,0.19,6.88,0,1,6
-9.71,-0.32,4.56,0,1,6
-8.16,0.4,3.22,0,1,6
-7.22,0.49,4.33,0,1,6
-5.93,0.49,5.41,0,1,6
-5.49,0.05,5.25,0,1,6
-5.38,0.21,4.81,0,1,6
-4.82,-0.68,4.19,0,1,6
-3.97,-0.91,5.45,0,1,6
-4.08,-0.41,5.58,0,1,6
-5.34,-0.17,4.99,0,1,6
-5.9,-0.6,5.34,0,1,6
-5.79,-0.91,6.02,0,1,6
-6.11,-1.38,6.65,0,1,6
-5.27,-2.2,7.01,0,1,6
-5.69,-2.85,8.37,0,1,6
-5.39,-1.51,10.19,0,1,6
-5.67,-1.15,9.82,0,1,6
-6.27,-1.84,8.45,0,1,6
-5.23,-1.51,9.27,0,1,6
-5.63,-1.77,9.34,0,1,6
-5.42,-0.74,7.94,0,1,6
-5.5,-0.8,8.21,0,1,6
-5.03,-1.52,8.43,0,1,6
-4.89,-1.5,8.33,0,1,6
-4.51,-0.96,7.75,0,1,6
-4.35,-0.3,8.0,0,1,6
-4.19,-0.05,8.71,0,1,6
-5.33,-0.02,6.34,0,1,6
-5.55,-0.23,4.92,0,1,6
-4.91,-0.81,5.88,0,1,6
-4.67,-0.62,7.09,0,1,6
-6.06,0.08,9.35,0,1,6
-4.81,-0.36,7.35,0,1,6
-5.63,0.05,7.97,0,1,6
-5.77,-0.08,7.02,0,1,6
-5.73,-0.03,6.92,0,1,6
-5.81,-0.12,7.7,0,1,6
-5.53,0.27,7.4,0,1,6
-5.66,0.74,7.81,0,1,6
-5.8,1.5,8.61,0,1,6
-6.24,0.94,7.85,0,1,6
-6.14,0.41,6.71,0,1,6
-5.48,1.57,7.51,0,1,6
-5.03,2.62,8.26,0,1,6
-5.73,2.6,7.56,0,1,6
-5.39,2.56,6.21,0,1,6
-5.58,3.93,7.26,0,1,6
-4.95,4.32,8.07,0,1,6
-5.43,3.62,6.89,0,1,6
-4.55,3.5,6.67,0,1,6
-6.27,4.35,6.83,0,1,6
-4.85,5.16,7.02,0,1,6
-9.56,-3.88,0.58,0,1,7
-11.94,-4.25,-1.15,0,1,7
-12.81,-5.21,-4.99,0,1,7
-13.9,-6.12,-4.52,0,1,7
-14.32,-5.24,-8.8,0,1,7
-8.97,4.74,1.89,0,1,7
-11.89,10.94,6.08,0,1,7
-9.76,6.26,14.78,0,1,7
-12.27,4.65,19.14,0,1,7
-3.77,15.85,19.62,0,1,7
-1.69,7.32,19.62,0,1,7
-1.26,-0.11,19.62,0,1,7
1.29,-1.04,19.62,0,1,7
-0.13,-1.41,19.62,0,1,7
2.0,-3.3,19.37,0,1,7
0.45,-7.15,12.77,0,1,7
2.15,-5.7,11.36,0,1,7
3.38,-3.56,9.81,0,1,7
2.12,-2.5,8.25,0,1,7
-0.6,-3.0,6.64,0,1,7
1.19,-2.17,3.84,0,1,7
2.93,-0.33,4.23,0,1,7
1.18,0.48,3.3,0,1,7
0.8,-0.68,2.3,0,1,7
1.31,-2.45,1.09,0,1,7
2.99,-5.08,3.74,0,1,7
-0.31,-1.97,2.98,0,1,7
-0.76,0.86,6.09,0,1,7
-0.81,0.38,6.65,0,1,7
0.26,-1.89,7.71,0,1,7
-1.51,-3.06,7.15,0,1,7
-3.27,-0.57,8.54,0,1,7
-4.58,0.71,10.16,0,1,7
-4.95,0.38,11.88,0,1,7
-6.77,2.09,12.17,0,1,7
-7.76,2.92,11.36,0,1,7
-9.36,3.3,10.85,0,1,7
-10.68,4.97,12.26,0,1,7
-10.57,5.45,10.98,0,1,7
-13.14,5.88,8.98,0,1,7
-12.28,5.36,7.48,0,1,7
-8.91,1.1,7.61,0,1,7
-9.79,0.19,6.88,0,1,7
-9.71,-0.32,4.56,0,1,7
-8.16,0.4,3.22,0,1,7
-7.22,0.49,4.33,0,1,7
-5.93,0.49,5.41,0,1,7
-5.49,0.05,5.25,0,1,7
-5.38,0.21,4.81,0,1,7
-4.82,-0.68,4.19,0,1,7
-3.97,-0.91,5.45,0,1,7
-4.08,-0.41,5.58,0,1,7
-5.34,-0.17,4.99,0,1,7
-5.9,-0.6,5.34,0,1,7
-5.79,-0.91,6.02,0,1,7
-6.11,-1.38,6.65,0,1,7
-5.27,-2.2,7.01,0,1,7
-5.69,-2.85,8.37,0,1,7
-5.39,-1.51,10.19,0,1,7
-5.67,-1.15,9.82,0,1,7
-6.27,-1.84,8.45,0,1,7
-5.23,-1.51,9.27,0,1,7
-5.63,-1.77,9.34,0,1,7
-5.42,-0.74,7.94,0,1,7
-5.5,-0.8,8.21,0,1,7
-5.03,-1.52,8.43,0,1,7
-4.89,-1.5,8.33,0,1,7
-4.51,-0.96,7.75,0,1,7
-4.35,-0.3,8.0,0,1,7
-4.19,-0.05,8.71,0,1,7
-5.33,-0.02,6.34,0,1,7
-5.55,-0.23,4.92,0,1,7
-4.91,-0.81,5.88,0,1,7
-4.67,-0.62,7.09,0,1,7
-6.06,0.08,9.35,0,1,7
-4.81,-0.36,7.35,0,1,7
-5.63,0.05,7.97,0,1,7
-5.77,-0.08,7.02,0,1,7
-5.73,-0.03,6.92,0,1,7
-5.81,-0.12,7.7,0,1,7
-5.53,0.27,7.4,0,1,7
-5.66,0.74,7.81,0,1,7
-5.8,1.5,8.61,0,1,7
-6.24,0.94,7.85,0,1,7
-6.14,0.41,6.71,0,1,7
-5.48,1.57,7.51,0,1,7
-5.03,2.62,8.26,0,1,7
-5.73,2.6,7.56,0,1,7
-5.39,2.56,6.21,0,1,7
-5.58,3.93,7.26,0,1,7
-4.95,4.32,8.07,0,1,7
-5.43,3.62,6.89,0,1,7
-4.55,3.5,6.67,0,1,7
-6.27,4.35,6.83,0,1,7
-4.85,5.16,7.02,0,1,7
-5.03,5.14,6.76,0,1,7
-5.58,5.46,6.42,0,1,7
-5.65,5.49,6.24,0,1,7
-5.51,4.79,5.65,0,1,7
-5.55,4.39,5.7,0,1,7
-8.97,4.74,1.89,0,1,8
-11.89,10.94,6.08,0,1,8
-9.76,6.26,14.78,0,1,8
-12.27,4.65,19.14,0,1,8
-3.77,15.85,19.62,0,1,8
-1.69,7.32,19.62,0,1,8
-1.26,-0.11,19.62,0,1,8
1.29,-1.04,19.62,0,1,8
-0.13,-1.41,19.62,0,1,8
2.0,-3.3,19.37,0,1,8
0.45,-7.15,12.77,0,1,8
2.15,-5.7,11.36,0,1,8
3.38,-3.56,9.81,0,1,8
2.12,-2.5,8.25,0,1,8
-0.6,-3.0,6.64,0,1,8
1.19,-2.17,3.84,0,1,8
2.93,-0.33,4.23,0,1,8
1.18,0.48,3.3,0,1,8
0.8,-0.68,2.3,0,1,8
1.31,-2.45,1.09,0,1,8
2.99,-5.08,3.74,0,1,8
-0.31,-1.97,2.98,0,1,8
-0.76,0.86,6.09,0,1,8
-0.81,0.38,6.65,0,1,8
0.26,-1.89,7.71,0,1,8
-1.51,-3.06,7.15,0,1,8
-3.27,-0.57,8.54,0,1,8
-4.58,0.71,10.16,0,1,8
-4.95,0.38,11.88,0,1,8
-6.77,2.09,12.17,0,1,8
-7.76,2.92,11.36,0,1,8
-9.36,3.3,10.85,0,1,8
-10.68,4.97,12.26,0,1,8
-10.57,5.45,10.98,0,1,8
-13.14,5.88,8.98,0,1,8
-12.28,5.36,7.48,0,1,8
-8.91,1.1,7.61,0,1,8
-9.79,0.19,6.88,0,1,8
-9.71,-0.32,4.56,0,1,8
-8.16,0.4,3.22,0,1,8
-7.22,0.49,4.33,0,1,8
-5.93,0.49,5.41,0,1,8
-5.49,0.05,5.25,0,1,8
-5.38,0.21,4.81,0,1,8
-4.82,-0.68,4.19,0,1,8
-3.97,-0.91,5.45,0,1,8
-4.08,-0.41,5.58,0,1,8
-5.34,-0.17,4.99,0,1,8
-5.9,-0.6,5.34,0,1,8
-5.79,-0.91,6.02,0,1,8
-6.11,-1.38,6.65,0,1,8
-5.27,-2.2,7.01,0,1,8
-5.69,-2.85,8.37,0,1,8
-5.39,-1.51,10.19,0,1,8
-5.67,-1.15,9.82,0,1,8
-6.27,-1.84,8.45,0,1,8
-5.23,-1.51,9.27,0,1,8
-5.63,-1.77,9.34,0,1,8
-5.42,-0.74,7.94,0,1,8
-5.5,-0.8,8.21,0,1,8
-5.03,-1.52,8.43,0,1,8
-4.89,-1.5,8.33,0,1,8
-4.51,-0.96,7.75,0,1,8
-4.35,-0.3,8.0,0,1,8
-4.19,-0.05,8.71,0,1,8
-5.33,-0.02,6.34,0,1,8
-5.55,-0.23,4.92,0,1,8
-4.91,-0.81,5.88,0,1,8
-4.67,-0.62,7.09,0,1,8
-6.06,0.08,9.35,0,1,8
-4.81,-0.36,7.35,0,1,8
-5.63,0.05,7.97,0,1,8
-5.77,-0.08,7.02,0,1,8
-5.73,-0.03,6.92,0,1,8
-5.81,-0.12,7.7,0,1,8
-5.53,0.27,7.4,0,1,8
-5.66,0.74,7.81,0,1,8
-5.8,1.5,8.61,0,1,8
-6.24,0.94,7.85,0,1,8
-6.14,0.41,6.71,0,1,8
-5.48,1.57,7.51,0,1,8
-5.03,2.62,8.26,0,1,8
-5.73,2.6,7.56,0,1,8
-5.39,2.56,6.21,0,1,8
-5.58,3.93,7.26,0,1,8
-4.95,4.32,8.07,0,1,8
-5.43,3.62,6.89,0,1,8
-4.55,3.5,6.67,0,1,8
-6.27,4.35,6.83,0,1,8
-4.85,5.16,7.02,0,1,8
-5.03,5.14,6.76,0,1,8
-5.58,5.46,6.42,0,1,8
-5.65,5.49,6.24,0,1,8
-5.51,4.79,5.65,0,1,8
-5.55,4.39,5.7,0,1,8
-5.98,4.81,5.66,0,1,8
-6.36,5.5,5.12,0,1,8
-6.5,5.31,5.34,0,1,8
-6.22,5.26,5.33,0,1,8
-6.19,5.24,4.73,0,1,8
-1.69,7.32,19.62,0,1,9
-1.26,-0.11,19.62,0,1,9
1.29,-1.04,19.62,0,1,9
-0.13,-1.41,19.62,0,1,9
2.0,-3.3,19.37,0,1,9
0.45,-7.15,12.77,0,1,9
2.15,-5.7,11.36,0,1,9
3.38,-3.56,9.81,0,1,9
2.12,-2.5,8.25,0,1,9
-0.6,-3.0,6.64,0,1,9
1.19,-2.17,3.84,0,1,9
2.93,-0.33,4.23,0,1,9
1.18,0.48,3.3,0,1,9
0.8,-0.68,2.3,0,1,9
1.31,-2.45,1.09,0,1,9
2.99,-5.08,3.74,0,1,9
-0.31,-1.97,2.98,0,1,9
-0.76,0.86,6.09,0,1,9
-0.81,0.38,6.65,0,1,9
0.26,-1.89,7.71,0,1,9
-1.51,-3.06,7.15,0,1,9
-3.27,-0.57,8.54,0,1,9
-4.58,0.71,10.16,0,1,9
-4.95,0.38,11.88,0,1,9
-6.77,2.09,12.17,0,1,9
-7.76,2.92,11.36,0,1,9
-9.36,3.3,10.85,0,1,9
-10.68,4.97,12.26,0,1,9
-10.57,5.45,10.98,0,1,9
-13.14,5.88,8.98,0,1,9
-12.28,5.36,7.48,0,1,9
-8.91,1.1,7.61,0,1,9
-9.79,0.19,6.88,0,1,9
-9.71,-0.32,4.56,0,1,9
-8.16,0.4,3.22,0,1,9
-7.22,0.49,4.33,0,1,9
-5.93,0.49,5.41,0,1,9
-5.49,0.05,5.25,0,1,9
-5.38,0.21,4.81,0,1,9
-4.82,-0.68,4.19,0,1,9
-3.97,-0.91,5.45,0,1,9
-4.08,-0.41,5.58,0,1,9
-5.34,-0.17,4.99,0,1,9
-5.9,-0.6,5.34,0,1,9
-5.79,-0.91,6.02,0,1,9
-6.11,-1.38,6.65,0,1,9
-5.27,-2.2,7.01,0,1,9
-5.69,-2.85,8.37,0,1,9
-5.39,-1.51,10.19,0,1,9
-5.67,-1.15,9.82,0,1,9
-6.27,-1.84,8.45,0,1,9
-5.23,-1.51,9.27,0,1,9
-5.63,-1.77,9.34,0,1,9
-5.42,-0.74,7.94,0,1,9
-5.5,-0.8,8.21,0,1,9
-5.03,-1.52,8.43,0,1,9
-4.89,-1.5,8.33,0,1,9
-4.51,-0.96,7.75,0,1,9
-4.35,-0.3,8.0,0,1,9
-4.19,-0.05,8.71,0,1,9
-5.33,-0.02,6.34,0,1,9
-5.55,-0.23,4.92,0,1,9
-4.91,-0.81,5.88,0,1,9
-4.67,-0.62,7.09,0,1,9
-6.06,0.08,9.35,0,1,9
-4.81,-0.36,7.35,0,1,9
-5.63,0.05,7.97,0,1,9
-5.77,-0.08,7.02,0,1,9
-5.73,-0.03,6.92,0,1,9
-5.81,-0.12,7.7,0,1,9
-5.53,0.27,7.4,0,1,9
-5.66,0.74,7.81,0,1,9
-5.8,1.5,8.61,0,1,9
-6.24,0.94,7.85,0,1,9
-6.14,0.41,6.71,0,1,9
-5.48,1.57,7.51,0,1,9
-5.03,2.62,8.26,0,1,9
-5.73,2.6,7.56,0,1,9
-5.39,2.56,6.21,0,1,9
-5.58,3.93,7.26,0,1,9
-4.95,4.32,8.07,0,1,9
-5.43,3.62,6.89,0,1,9
-4.55,3.5,6.67,0,1,9
-6.27,4.35,6.83,0,1,9
-4.85,5.16,7.02,0,1,9
-5.03,5.14,6.76,0,1,9
-5.58,5.46,6.42,0,1,9
-5.65,5.49,6.24,0,1,9
-5.51,4.79,5.65,0,1,9
-5.55,4.39,5.7,0,1,9
-5.98,4.81,5.66,0,1,9
-6.36,5.5,5.12,0,1,9
-6.5,5.31,5.34,0,1,9
-6.22,5.26,5.33,0,1,9
-6.19,5.24,4.73,0,1,9
-6.56,5.25,4.74,0,1,9
-6.05,5.69,5.23,0,1,9
-6.48,6.94,4.29,0,1,9
-6.58,7.12,4.19,0,1,9
-6.5,6.58,4.7,0,1,9
0.45,-7.15,12.77,0,1,10
2.15,-5.7,11.36,0,1,10
3.38,-3.56,9.81,0,1,10
2.12,-2.5,8.25,0,1,10
-0.6,-3.0,6.64,0,1,10
1.19,-2.17,3.84,0,1,10
2.93,-0.33,4.23,0,1,10
1.18,0.48,3.3,0,1,10
0.8,-0.68,2.3,0,1,10
1.31,-2.45,1.09,0,1,10
2.99,-5.08,3.74,0,1,10
-0.31,-1.97,2.98,0,1,10
-0.76,0.86,6.09,0,1,10
-0.81,0.38,6.65,0,1,10
0.26,-1.89,7.71,0,1,10
-1.51,-3.06,7.15,0,1,10
-3.27,-0.57,8.54,0,1,10
-4.58,0.71,10.16,0,1,10
-4.95,0.38,11.88,0,1,10
-6.77,2.09,12.17,0,1,10
-7.76,2.92,11.36,0,1,10
-9.36,3.3,10.85,0,1,10
-10.68,4.97,12.26,0,1,10
-10.57,5.45,10.98,0,1,10
-13.14,5.88,8.98,0,1,10
-12.28,5.36,7.48,0,1,10
-8.91,1.1,7.61,0,1,10
-9.79,0.19,6.88,0,1,10
-9.71,-0.32,4.56,0,1,10
-8.16,0.4,3.22,0,1,10
-7.22,0.49,4.33,0,1,10
-5.93,0.49,5.41,0,1,10
-5.49,0.05,5.25,0,1,10
-5.38,0.21,4.81,0,1,10
-4.82,-0.68,4.19,0,1,10
-3.97,-0.91,5.45,0,1,10
-4.08,-0.41,5.58,0,1,10
-5.34,-0.17,4.99,0,1,10
-5.9,-0.6,5.34,0,1,10
-5.79,-0.91,6.02,0,1,10
-6.11,-1.38,6.65,0,1,10
-5.27,-2.2,7.01,0,1,10
-5.69,-2.85,8.37,0,1,10
-5.39,-1.51,10.19,0,1,10
-5.67,-1.15,9.82,0,1,10
-6.27,-1.84,8.45,0,1,10
-5.23,-1.51,9.27,0,1,10
-5.63,-1.77,9.34,0,1,10
-5.42,-0.74,7.94,0,1,10
-5.5,-0.8,8.21,0,1,10
-5.03,-1.52,8.43,0,1,10
-4.89,-1.5,8.33,0,1,10
-4.51,-0.96,7.75,0,1,10
-4.35,-0.3,8.0,0,1,10
-4.19,-0.05,8.71,0,1,10
-5.33,-0.02,6.34,0,1,10
-5.55,-0.23,4.92,0,1,10
-4.91,-0.81,5.88,0,1,10
-4.67,-0.62,7.09,0,1,10
-6.06,0.08,9.35,0,1,10
-4.81,-0.36,7.35,0,1,10
-5.63,0.05,7.97,0,1,10
-5.77,-0.08,7.02,0,1,10
-5.73,-0.03,6.92,0,1,10
-5.81,-0.12,7.7,0,1,10
-5.53,0.27,7.4,0,1,10
-5.66,0.74,7.81,0,1,10
-5.8,1.5,8.61,0,1,10
-6.24,0.94,7.85,0,1,10
-6.14,0.41,6.71,0,1,10
-5.48,1.57,7.51,0,1,10
-5.03,2.62,8.26,0,1,10
-5.73,2.6,7.56,0,1,10
-5.39,2.56,6.21,0,1,10
-5.58,3.93,7.26,0,1,10
-4.95,4.32,8.07,0,1,10
-5.43,3.62,6.89,0,1,10
-4.55,3.5,6.67,0,1,10
-6.27,4.35,6.83,0,1,10
-4.85,5.16,7.02,0,1,10
-5.03,5.14,6.76,0,1,10
-5.58,5.46,6.42,0,1,10
-5.65,5.49,6.24,0,1,10
-5.51,4.79,5.65,0,1,10
-5.55,4.39,5.7,0,1,10
-5.98,4.81,5.66,0,1,10
-6.36,5.5,5.12,0,1,10
-6.5,5.31,5.34,0,1,10
-6.22,5.26,5.33,0,1,10
-6.19,5.24,4.73,0,1,10
-6.56,5.25,4.74,0,1,10
-6.05,5.69,5.23,0,1,10
-6.48,6.94,4.29,0,1,10
-6.58,7.12,4.19,0,1,10
-6.5,6.58,4.7,0,1,10
-6.26,6.42,4.41,0,1,10
-6.15,6.86,3.91,0,1,10
-6.72,7.0,3.75,0,1,10
-6.69,7.1,4.42,0,1,10
-6.46,7.22,3.9,0,1,10
-7.79,4.21,-5.72,1,2,1
-7.19,3.87,-5.01,1,2,1
-7.25,2.23,-5.99,1,2,1
-6.89,3.19,-4.87,1,2,1
-6.88,4.87,-4.11,1,2,1
-6.99,4.82,-4.33,1,2,1
-6.84,3.6,-4.88,0,2,1
-6.23,2.66,-6.58,0,2,1
-6.77,2.79,-6.93,0,2,1
-6.54,3.32,-5.82,0,2,1
-6.13,3.01,-5.25,0,2,1
-6.81,3.67,-5.67,0,2,1
-6.79,4.02,-5.78,0,2,1
-6.68,4.08,-5.67,0,2,1
-6.9,3.36,-5.87,0,2,1
-7.22,2.72,-6.01,0,2,1
-6.79,2.1,-6.02,0,2,1
-6.74,1.51,-6.47,0,2,1
-6.23,0.8,-5.88,0,2,1
-6.93,0.42,-6.11,0,2,1
-6.68,0.82,-7.49,0,2,1
-4.9,2.47,-4.91,0,2,1
-3.77,3.45,-3.32,0,2,1
-4.27,3.78,-2.74,0,2,1
-5.35,4.33,-4.36,0,2,1
-4.81,4.3,-3.66,0,2,1
-4.36,3.63,-2.71,0,2,1
-2.53,3.38,-0.62,0,2,1
-4.07,3.22,-2.88,0,2,1
-4.95,0.19,-5.87,0,2,1
-4.5,-1.94,-6.29,0,2,1
-5.48,-1.49,-6.5,0,2,1
-5.34,0.32,-3.61,0,2,1
-6.96,1.32,-3.11,0,2,1
-6.96,1.61,-3.56,0,2,1
-10.06,-0.59,-3.0,0,2,1
-12.75,-3.94,-6.88,0,2,1
-11.68,-7.47,-10.86,0,2,1
-12.4,-13.1,-11.64,0,2,1
-13.45,-12.95,-12.66,0,2,1
-12.25,-7.76,-11.64,0,2,1
-9.43,-0.65,-6.6,0,2,1
-10.35,6.12,-2.66,0,2,1
-10.16,12.49,5.7,0,2,1
-5.22,14.48,10.22,0,2,1
-11.67,9.98,11.41,0,2,1
-15.11,6.1,4.52,0,2,1
-5.14,0.59,14.34,0,2,1
-2.44,-1.45,18.21,0,2,1
-2.5,-0.04,19.62,0,2,1
-3.1,1.01,19.62,0,2,1
-2.64,1.08,19.62,0,2,1
-0.76,-2.25,19.62,0,2,1
-0.39,-3.51,17.5,0,2,1
-1.96,0.74,14.79,0,2,1
-2.18,0.46,12.61,0,2,1
0.08,-2.24,9.91,0,2,1
0.87,-2.28,8.62,0,2,1
-0.59,-0.79,6.36,0,2,1
0.3,0.67,5.44,0,2,1
0.56,1.11,5.85,0,2,1
-0.12,0.43,4.5,0,2,1
-0.65,-1.4,3.11,0,2,1
0.04,-2.4,3.07,0,2,1
0.12,-3.35,3.71,0,2,1
-0.17,-3.42,4.62,0,2,1
-0.03,-3.65,5.72,0,2,1
-1.13,-3.52,6.36,0,2,1
-3.65,-3.83,7.19,0,2,1
-4.39,-4.7,8.55,0,2,1
-5.05,-5.48,9.32,0,2,1
-5.25,-6.28,9.56,0,2,1
-7.11,-6.56,9.17,0,2,1
-7.95,-6.6,9.41,0,2,1
-7.66,-6.56,8.27,0,2,1
-7.59,-6.1,8.34,0,2,1
-7.53,-5.24,7.55,0,2,1
-7.46,-4.59,6.61,0,2,1
-6.81,-4.15,5.96,0,2,1
-6.55,-3.91,5.56,0,2,1
-6.76,-3.8,5.09,0,2,1
-5.93,-3.86,5.19,0,2,1
-5.86,-3.34,4.88,0,2,1
-5.54,-3.08,4.86,0,2,1
-5.31,-2.8,5.2,0,2,1
-5.15,-3.15,5.06,0,2,1
-5.31,-3.52,4.84,0,2,1
-5.53,-3.8,4.84,0,2,1
-5.71,-4.24,5.51,0,2,1
-5.39,-4.9,6.42,0,2,1
-5.36,-5.56,6.67,0,2,1
-5.13,-5.76,6.72,0,2,1
-5.16,-5.55,6.72,0,2,1
-5.08,-5.09,7.08,0,2,1
-4.72,-4.67,7.67,0,2,1
-4.91,-4.44,7.54,0,2,1
-5.02,-4.49,7.46,0,2,1
-5.03,-4.39,7.52,0,2,1
-4.67,-4.15,7.62,0,2,1
-4.44,-3.69,7.96,0,2,1
-6.99,4.82,-4.33,1,2,2
-6.84,3.6,-4.88,0,2,2
-6.23,2.66,-6.58,0,2,2
-6.77,2.79,-6.93,0,2,2
-6.54,3.32,-5.82,0,2,2
-6.13,3.01,-5.25,0,2,2
-6.81,3.67,-5.67,0,2,2
-6.79,4.02,-5.78,0,2,2
-6.68,4.08,-5.67,0,2,2
-6.9,3.36,-5.87,0,2,2
-7.22,2.72,-6.01,0,2,2
-6.79,2.1,-6.02,0,2,2
-6.74,1.51,-6.47,0,2,2
-6.23,0.8,-5.88,0,2,2
-6.93,0.42,-6.11,0,2,2
-6.68,0.82,-7.49,0,2,2
-4.9,2.47,-4.91,0,2,2
-3.77,3.45,-3.32,0,2,2
-4.27,3.78,-2.74,0,2,2
-5.35,4.33,-4.36,0,2,2
-4.81,4.3,-3.66,0,2,2
-4.36,3.63,-2.71,0,2,2
-2.53,3.38,-0.62,0,2,2
-4.07,3.22,-2.88,0,2,2
-4.95,0.19,-5.87,0,2,2
-4.5,-1.94,-6.29,0,2,2
-5.48,-1.49,-6.5,0,2,2
-5.34,0.32,-3.61,0,2,2
-6.96,1.32,-3.11,0,2,2
-6.96,1.61,-3.56,0,2,2
-10.06,-0.59,-3.0,0,2,2
-12.75,-3.94,-6.88,0,2,2
-11.68,-7.47,-10.86,0,2,2
-12.4,-13.1,-11.64,0,2,2
-13.45,-12.95,-12.66,0,2,2
-12.25,-7.76,-11.64,0,2,2
-9.43,-0.65,-6.6,0,2,2
-10.35,6.12,-2.66,0,2,2
-10.16,12.49,5.7,0,2,2
-5.22,14.48,10.22,0,2,2
-11.67,9.98,11.41,0,2,2
-15.11,6.1,4.52,0,2,2
-5.14,0.59,14.34,0,2,2
-2.44,-1.45,18.21,0,2,2
-2.5,-0.04,19.62,0,2,2
-3.1,1.01,19.62,0,2,2
-2.64,1.08,19.62,0,2,2
-0.76,-2.25,19.62,0,2,2
-0.39,-3.51,17.5,0,2,2
-1.96,0.74,14.79,0,2,2
-2.18,0.46,12.61,0,2,2
0.08,-2.24,9.91,0,2,2
0.87,-2.28,8.62,0,2,2
-0.59,-0.79,6.36,0,2,2
0.3,0.67,5.44,0,2,2
0.56,1.11,5.85,0,2,2
-0.12,0.43,4.5,0,2,2
-0.65,-1.4,3.11,0,2,2
0.04,-2.4,3.07,0,2,2
0.12,-3.35,3.71,0,2,2
-0.17,-3.42,4.62,0,2,2
-0.03,-3.65,5.72,0,2,2
-1.13,-3.52,6.36,0,2,2
-3.65,-3.83,7.19,0,2,2
-4.39,-4.7,8.55,0,2,2
-5.05,-5.48,9.32,0,2,2
-5.25,-6.28,9.56,0,2,2
-7.11,-6.56,9.17,0,2,2
-7.95,-6.6,9.41,0,2,2
-7.66,-6.56,8.27,0,2,2
-7.59,-6.1,8.34,0,2,2
-7.53,-5.24,7.55,0,2,2
-7.46,-4.59,6.61,0,2,2
-6.81,-4.15,5.96,0,2,2
-6.55,-3.91,5.56,0,2,2
-6.76,-3.8,5.09,0,2,2
-5.93,-3.86,5.19,0,2,2
-5.86,-3.34,4.88,0,2,2
-5.54,-3.08,4.86,0,2,2
-5.31,-2.8,5.2,0,2,2
-5.15,-3.15,5.06,0,2,2
-5.31,-3.52,4.84,0,2,2
-5.53,-3.8,4.84,0,2,2
-5.71,-4.24,5.51,0,2,2
-5.39,-4.9,6.42,0,2,2
-5.36,-5.56,6.67,0,2,2
-5.13,-5.76,6.72,0,2,2
-5.16,-5.55,6.72,0,2,2
-5.08,-5.09,7.08,0,2,2
-4.72,-4.67,7.67,0,2,2
-4.91,-4.44,7.54,0,2,2
-5.02,-4.49,7.46,0,2,2
-5.03,-4.39,7.52,0,2,2
-4.67,-4.15,7.62,0,2,2
-4.44,-3.69,7.96,0,2,2
-3.76,-3.28,8.37,0,2,2
-3.98,-3.23,8.28,0,2,2
-4.34,-3.59,7.86,0,2,2
-4.85,-3.82,6.67,0,2,2
-4.8,-3.84,6.57,0,2,2
-6.13,3.01,-5.25,0,2,3
-6.81,3.67,-5.67,0,2,3
-6.79,4.02,-5.78,0,2,3
-6.68,4.08,-5.67,0,2,3
-6.9,3.36,-5.87,0,2,3
-7.22,2.72,-6.01,0,2,3
-6.79,2.1,-6.02,0,2,3
-6.74,1.51,-6.47,0,2,3
-6.23,0.8,-5.88,0,2,3
-6.93,0.42,-6.11,0,2,3
-6.68,0.82,-7.49,0,2,3
-4.9,2.47,-4.91,0,2,3
-3.77,3.45,-3.32,0,2,3
-4.27,3.78,-2.74,0,2,3
-5.35,4.33,-4.36,0,2,3
-4.81,4.3,-3.66,0,2,3
-4.36,3.63,-2.71,0,2,3
-2.53,3.38,-0.62,0,2,3
-4.07,3.22,-2.88,0,2,3
-4.95,0.19,-5.87,0,2,3
-4.5,-1.94,-6.29,0,2,3
-5.48,-1.49,-6.5,0,2,3
-5.34,0.32,-3.61,0,2,3
-6.96,1.32,-3.11,0,2,3
-6.96,1.61,-3.56,0,2,3
-10.06,-0.59,-3.0,0,2,3
-12.75,-3.94,-6.88,0,2,3
-11.68,-7.47,-10.86,0,2,3
-12.4,-13.1,-11.64,0,2,3
-13.45,-12.95,-12.66,0,2,3
-12.25,-7.76,-11.64,0,2,3
-9.43,-0.65,-6.6,0,2,3
-10.35,6.12,-2.66,0,2,3
-10.16,12.49,5.7,0,2,3
-5.22,14.48,10.22,0,2,3
-11.67,9.98,11.41,0,2,3
-15.11,6.1,4.52,0,2,3
-5.14,0.59,14.34,0,2,3
-2.44,-1.45,18.21,0,2,3
-2.5,-0.04,19.62,0,2,3
-3.1,1.01,19.62,0,2,3
-2.64,1.08,19.62,0,2,3
-0.76,-2.25,19.62,0,2,3
-0.39,-3.51,17.5,0,2,3
-1.96,0.74,14.79,0,2,3
-2.18,0.46,12.61,0,2,3
0.08,-2.24,9.91,0,2,3
0.87,-2.28,8.62,0,2,3
-0.59,-0.79,6.36,0,2,3
0.3,0.67,5.44,0,2,3
0.56,1.11,5.85,0,2,3
-0.12,0.43,4.5,0,2,3
-0.65,-1.4,3.11,0,2,3
0.04,-2.4,3.07,0,2,3
0.12,-3.35,3.71,0,2,3
-0.17,-3.42,4.62,0,2,3
-0.03,-3.65,5.72,0,2,3
-1.13,-3.52,6.36,0,2,3
-3.65,-3.83,7.19,0,2,3
-4.39,-4.7,8.55,0,2,3
-5.05,-5.48,9.32,0,2,3
-5.25,-6.28,9.56,0,2,3
-7.11,-6.56,9.17,0,2,3
-7.95,-6.6,9.41,0,2,3
-7.66,-6.56,8.27,0,2,3
-7.59,-6.1,8.34,0,2,3
-7.53,-5.24,7.55,0,2,3
-7.46,-4.59,6.61,0,2,3
-6.81,-4.15,5.96,0,2,3
-6.55,-3.91,5.56,0,2,3
-6.76,-3.8,5.09,0,2,3
-5.93,-3.86,5.19,0,2,3
-5.86,-3.34,4.88,0,2,3
-5.54,-3.08,4.86,0,2,3
-5.31,-2.8,5.2,0,2,3
-5.15,-3.15,5.06,0,2,3
-5.31,-3.52,4.84,0,2,3
-5.53,-3.8,4.84,0,2,3
-5.71,-4.24,5.51,0,2,3
-5.39,-4.9,6.42,0,2,3
-5.36,-5.56,6.67,0,2,3
-5.13,-5.76,6.72,0,2,3
-5.16,-5.55,6.72,0,2,3
-5.08,-5.09,7.08,0,2,3
-4.72,-4.67,7.67,0,2,3
-4.91,-4.44,7.54,0,2,3
-5.02,-4.49,7.46,0,2,3
-5.03,-4.39,7.52,0,2,3
-4.67,-4.15,7.62,0,2,3
-4.44,-3.69,7.96,0,2,3
-3.76,-3.28,8.37,0,2,3
-3.98,-3.23,8.28,0,2,3
-4.34,-3.59,7.86,0,2,3
-4.85,-3.82,6.67,0,2,3
-4.8,-3.84,6.57,0,2,3
-4.48,-3.91,7.33,0,2,3
-3.95,-3.9,6.9,0,2,3
-4.51,-3.81,6.59,0,2,3
-4.13,-3.91,6.87,0,2,3
-4.65,-3.58,7.1,0,2,3
-7.22,2.72,-6.01,0,2,4
-6.79,2.1,-6.02,0,2,4
-6.74,1.51,-6.47,0,2,4
-6.23,0.8,-5.88,0,2,4
-6.93,0.42,-6.11,0,2,4
-6.68,0.82,-7.49,0,2,4
-4.9,2.47,-4.91,0,2,4
-3.77,3.45,-3.32,0,2,4
-4.27,3.78,-2.74,0,2,4
-5.35,4.33,-4.36,0,2,4
-4.81,4.3,-3.66,0,2,4
-4.36,3.63,-2.71,0,2,4
-2.53,3.38,-0.62,0,2,4
-4.07,3.22,-2.88,0,2,4
-4.95,0.19,-5.87,0,2,4
-4.5,-1.94,-6.29,0,2,4
-5.48,-1.49,-6.5,0,2,4
-5.34,0.32,-3.61,0,2,4
-6.96,1.32,-3.11,0,2,4
-6.96,1.61,-3.56,0,2,4
-10.06,-0.59,-3.0,0,2,4
-12.75,-3.94,-6.88,0,2,4
-11.68,-7.47,-10.86,0,2,4
-12.4,-13.1,-11.64,0,2,4
-13.45,-12.95,-12.66,0,2,4
-12.25,-7.76,-11.64,0,2,4
-9.43,-0.65,-6.6,0,2,4
-10.35,6.12,-2.66,0,2,4
-10.16,12.49,5.7,0,2,4
-5.22,14.48,10.22,0,2,4
-11.67,9.98,11.41,0,2,4
-15.11,6.1,4.52,0,2,4
-5.14,0.59,14.34,0,2,4
-2.44,-1.45,18.21,0,2,4
-2.5,-0.04,19.62,0,2,4
-3.1,1.01,19.62,0,2,4
-2.64,1.08,19.62,0,2,4
-0.76,-2.25,19.62,0,2,4
-0.39,-3.51,17.5,0,2,4
-1.96,0.74,14.79,0,2,4
-2.18,0.46,12.61,0,2,4
0.08,-2.24,9.91,0,2,4
0.87,-2.28,8.62,0,2,4
-0.59,-0.79,6.36,0,2,4
0.3,0.67,5.44,0,2,4
0.56,1.11,5.85,0,2,4
-0.12,0.43,4.5,0,2,4
-0.65,-1.4,3.11,0,2,4
0.04,-2.4,3.07,0,2,4
0.12,-3.35,3.71,0,2,4
-0.17,-3.42,4.62,0,2,4
-0.03,-3.65,5.72,0,2,4
-1.13,-3.52,6.36,0,2,4
-3.65,-3.83,7.19,0,2,4
-4.39,-4.7,8.55,0,2,4
-5.05,-5.48,9.32,0,2,4
-5.25,-6.28,9.56,0,2,4
-7.11,-6.56,9.17,0,2,4
-7.95,-6.6,9.41,0,2,4
-7.66,-6.56,8.27,0,2,4
-7.59,-6.1,8.34,0,2,4
-7.53,-5.24,7.55,0,2,4
-7.46,-4.59,6.61,0,2,4
-6.81,-4.15,5.96,0,2,4
-6.55,-3.91,5.56,0,2,4
-6.76,-3.8,5.09,0,2,4
-5.93,-3.86,5.19,0,2,4
-5.86,-3.34,4.88,0,2,4
-5.54,-3.08,4.86,0,2,4
-5.31,-2.8,5.2,0,2,4
-5.15,-3.15,5.06,0,2,4
-5.31,-3.52,4.84,0,2,4
-5.53,-3.8,4.84,0,2,4
-5.71,-4.24,5.51,0,2,4
-5.39,-4.9,6.42,0,2,4
-5.36,-5.56,6.67,0,2,4
-5.13,-5.76,6.72,0,2,4
-5.16,-5.55,6.72,0,2,4
-5.08,-5.09,7.08,0,2,4
-4.72,-4.67,7.67,0,2,4
-4.91,-4.44,7.54,0,2,4
-5.02,-4.49,7.46,0,2,4
-5.03,-4.39,7.52,0,2,4
-4.67,-4.15,7.62,0,2,4
-4.44,-3.69,7.96,0,2,4
-3.76,-3.28,8.37,0,2,4
-3.98,-3.23,8.28,0,2,4
-4.34,-3.59,7.86,0,2,4
-4.85,-3.82,6.67,0,2,4
-4.8,-3.84,6.57,0,2,4
-4.48,-3.91,7.33,0,2,4
-3.95,-3.9,6.9,0,2,4
-4.51,-3.81,6.59,0,2,4
-4.13,-3.91,6.87,0,2,4
-4.65,-3.58,7.1,0,2,4
-5.35,-3.09,6.9,0,2,4
-5.37,-2.93,7.21,0,2,4
-6.01,-3.68,6.74,0,2,4
-5.56,-4.39,7.05,0,2,4
-5.88,-3.95,7.34,0,2,4
-6.68,0.82,-7.49,0,2,5
-4.9,2.47,-4.91,0,2,5
-3.77,3.45,-3.32,0,2,5
-4.27,3.78,-2.74,0,2,5
-5.35,4.33,-4.36,0,2,5
-4.81,4.3,-3.66,0,2,5
-4.36,3.63,-2.71,0,2,5
-2.53,3.38,-0.62,0,2,5
-4.07,3.22,-2.88,0,2,5
-4.95,0.19,-5.87,0,2,5
-4.5,-1.94,-6.29,0,2,5
-5.48,-1.49,-6.5,0,2,5
-5.34,0.32,-3.61,0,2,5
-6.96,1.32,-3.11,0,2,5
-6.96,1.61,-3.56,0,2,5
-10.06,-0.59,-3.0,0,2,5
-12.75,-3.94,-6.88,0,2,5
-11.68,-7.47,-10.86,0,2,5
-12.4,-13.1,-11.64,0,2,5
-13.45,-12.95,-12.66,0,2,5
-12.25,-7.76,-11.64,0,2,5
-9.43,-0.65,-6.6,0,2,5
-10.35,6.12,-2.66,0,2,5
-10.16,12.49,5.7,0,2,5
-5.22,14.48,10.22,0,2,5
-11.67,9.98,11.41,0,2,5
-15.11,6.1,4.52,0,2,5
-5.14,0.59,14.34,0,2,5
-2.44,-1.45,18.21,0,2,5
-2.5,-0.04,19.62,0,2,5
-3.1,1.01,19.62,0,2,5
-2.64,1.08,19.62,0,2,5
-0.76,-2.25,19.62,0,2,5
-0.39,-3.51,17.5,0,2,5
-1.96,0.74,14.79,0,2,5
-2.18,0.46,12.61,0,2,5
0.08,-2.24,9.91,0,2,5
0.87,-2.28,8.62,0,2,5
-0.59,-0.79,6.36,0,2,5
0.3,0.67,5.44,0,2,5
0.56,1.11,5.85,0,2,5
-0.12,0.43,4.5,0,2,5
-0.65,-1.4,3.11,0,2,5
0.04,-2.4,3.07,0,2,5
0.12,-3.35,3.71,0,2,5
-0.17,-3.42,4.62,0,2,5
-0.03,-3.65,5.72,0,2,5
-1.13,-3.52,6.36,0,2,5
-3.65,-3.83,7.19,0,2,5
-4.39,-4.7,8.55,0,2,5
-5.05,-5.48,9.32,0,2,5
-5.25,-6.28,9.56,0,2,5
-7.11,-6.56,9.17,0,2,5
-7.95,-6.6,9.41,0,2,5
-7.66,-6.56,8.27,0,2,5
-7.59,-6.1,8.34,0,2,5
-7.53,-5.24,7.55,0,2,5
-7.46,-4.59,6.61,0,2,5
-6.81,-4.15,5.96,0,2,5
-6.55,-3.91,5.56,0,2,5
-6.76,-3.8,5.09,0,2,5
-5.93,-3.86,5.19,0,2,5
-5.86,-3.34,4.88,0,2,5
-5.54,-3.08,4.86,0,2,5
-5.31,-2.8,5.2,0,2,5
-5.15,-3.15,5.06,0,2,5
-5.31,-3.52,4.84,0,2,5
-5.53,-3.8,4.84,0,2,5
-5.71,-4.24,5.51,0,2,5
-5.39,-4.9,6.42,0,2,5
-5.36,-5.56,6.67,0,2,5
-5.13,-5.76,6.72,0,2,5
-5.16,-5.55,6.72,0,2,5
-5.08,-5.09,7.08,0,2,5
-4.72,-4.67,7.67,0,2,5
-4.91,-4.44,7.54,0,2,5
-5.02,-4.49,7.46,0,2,5
-5.03,-4.39,7.52,0,2,5
-4.67,-4.15,7.62,0,2,5
-4.44,-3.69,7.96,0,2,5
-3.76,-3.28,8.37,0,2,5
-3.98,-3.23,8.28,0,2,5
-4.34,-3.59,7.86,0,2,5
-4.85,-3.82,6.67,0,2,5
-4.8,-3.84,6.57,0,2,5
-4.48,-3.91,7.33,0,2,5
-3.95,-3.9,6.9,0,2,5
-4.51,-3.81,6.59,0,2,5
-4.13,-3.91,6.87,0,2,5
-4.65,-3.58,7.1,0,2,5
-5.35,-3.09,6.9,0,2,5
-5.37,-2.93,7.21,0,2,5
-6.01,-3.68,6.74,0,2,5
-5.56,-4.39,7.05,0,2,5
-5.88,-3.95,7.34,0,2,5
-6.22,-2.45,7.32,0,2,5
-6.71,-1.77,7.0,0,2,5
-6.39,-1.84,6.87,0,2,5
-7.84,-2.32,6.56,0,2,5
-7.08,-2.19,6.61,0,2,5
-4.81,4.3,-3.66,0,2,6
-4.36,3.63,-2.71,0,2,6
-2.53,3.38,-0.62,0,2,6
-4.07,3.22,-2.88,0,2,6
-4.95,0.19,-5.87,0,2,6
-4.5,-1.94,-6.29,0,2,6
-5.48,-1.49,-6.5,0,2,6
-5.34,0.32,-3.61,0,2,6
-6.96,1.32,-3.11,0,2,6
-6.96,1.61,-3.56,0,2,6
-10.06,-0.59,-3.0,0,2,6
-12.75,-3.94,-6.88,0,2,6
-11.68,-7.47,-10.86,0,2,6
-12.4,-13.1,-11.64,0,2,6
-13.45,-12.95,-12.66,0,2,6
-12.25,-7.76,-11.64,0,2,6
-9.43,-0.65,-6.6,0,2,6
-10.35,6.12,-2.66,0,2,6
-10.16,12.49,5.7,0,2,6
-5.22,14.48,10.22,0,2,6
-11.67,9.98,11.41,0,2,6
-15.11,6.1,4.52,0,2,6
-5.14,0.59,14.34,0,2,6
-2.44,-1.45,18.21,0,2,6
-2.5,-0.04,19.62,0,2,6
-3.1,1.01,19.62,0,2,6
-2.64,1.08,19.62,0,2,6
-0.76,-2.25,19.62,0,2,6
-0.39,-3.51,17.5,0,2,6
-1.96,0.74,14.79,0,2,6
-2.18,0.46,12.61,0,2,6
0.08,-2.24,9.91,0,2,6
0.87,-2.28,8.62,0,2,6
-0.59,-0.79,6.36,0,2,6
0.3,0.67,5.44,0,2,6
0.56,1.11,5.85,0,2,6
-0.12,0.43,4.5,0,2,6
-0.65,-1.4,3.11,0,2,6
0.04,-2.4,3.07,0,2,6
0.12,-3.35,3.71,0,2,6
-0.17,-3.42,4.62,0,2,6
-0.03,-3.65,5.72,0,2,6
-1.13,-3.52,6.36,0,2,6
-3.65,-3.83,7.19,0,2,6
-4.39,-4.7,8.55,0,2,6
-5.05,-5.48,9.32,0,2,6
-5.25,-6.28,9.56,0,2,6
-7.11,-6.56,9.17,0,2,6
-7.95,-6.6,9.41,0,2,6
-7.66,-6.56,8.27,0,2,6
-7.59,-6.1,8.34,0,2,6
-7.53,-5.24,7.55,0,2,6
-7.46,-4.59,6.61,0,2,6
-6.81,-4.15,5.96,0,2,6
-6.55,-3.91,5.56,0,2,6
-6.76,-3.8,5.09,0,2,6
-5.93,-3.86,5.19,0,2,6
-5.86,-3.34,4.88,0,2,6
-5.54,-3.08,4.86,0,2,6
-5.31,-2.8,5.2,0,2,6
-5.15,-3.15,5.06,0,2,6
-5.31,-3.52,4.84,0,2,6
-5.53,-3.8,4.84,0,2,6
-5.71,-4.24,5.51,0,2,6
-5.39,-4.9,6.42,0,2,6
-5.36,-5.56,6.67,0,2,6
-5.13,-5.76,6.72,0,2,6
-5.16,-5.55,6.72,0,2,6
-5.08,-5.09,7.08,0,2,6
-4.72,-4.67,7.67,0,2,6
-4.91,-4.44,7.54,0,2,6
-5.02,-4.49,7.46,0,2,6
-5.03,-4.39,7.52,0,2,6
-4.67,-4.15,7.62,0,2,6
-4.44,-3.69,7.96,0,2,6
-3.76,-3.28,8.37,0,2,6
-3.98,-3.23,8.28,0,2,6
-4.34,-3.59,7.86,0,2,6
-4.85,-3.82,6.67,0,2,6
-4.8,-3.84,6.57,0,2,6
-4.48,-3.91,7.33,0,2,6
-3.95,-3.9,6.9,0,2,6
-4.51,-3.81,6.59,0,2,6
-4.13,-3.91,6.87,0,2,6
-4.65,-3.58,7.1,0,2,6
-5.35,-3.09,6.9,0,2,6
-5.37,-2.93,7.21,0,2,6
-6.01,-3.68,6.74,0,2,6
-5.56,-4.39,7.05,0,2,6
-5.88,-3.95,7.34,0,2,6
-6.22,-2.45,7.32,0,2,6
-6.71,-1.77,7.0,0,2,6
-6.39,-1.84,6.87,0,2,6
-7.84,-2.32,6.56,0,2,6
-7.08,-2.19,6.61,0,2,6
-7.63,-0.93,6.28,0,2,6
-7.75,0.16,6.37,0,2,6
-7.63,0.42,6.56,0,2,6
-7.17,0.27,7.33,0,2,6
-7.95,0.54,6.69,0,2,6
-4.5,-1.94,-6.29,0,2,7
-5.48,-1.49,-6.5,0,2,7
-5.34,0.32,-3.61,0,2,7
-6.96,1.32,-3.11,0,2,7
-6.96,1.61,-3.56,0,2,7
-10.06,-0.59,-3.0,0,2,7
-12.75,-3.94,-6.88,0,2,7
-11.68,-7.47,-10.86,0,2,7
-12.4,-13.1,-11.64,0,2,7
-13.45,-12.95,-12.66,0,2,7
-12.25,-7.76,-11.64,0,2,7
-9.43,-0.65,-6.6,0,2,7
-10.35,6.12,-2.66,0,2,7
-10.16,12.49,5.7,0,2,7
-5.22,14.48,10.22,0,2,7
-11.67,9.98,11.41,0,2,7
-15.11,6.1,4.52,0,2,7
-5.14,0.59,14.34,0,2,7
-2.44,-1.45,18.21,0,2,7
-2.5,-0.04,19.62,0,2,7
-3.1,1.01,19.62,0,2,7
-2.64,1.08,19.62,0,2,7
-0.76,-2.25,19.62,0,2,7
-0.39,-3.51,17.5,0,2,7
-1.96,0.74,14.79,0,2,7
-2.18,0.46,12.61,0,2,7
0.08,-2.24,9.91,0,2,7
0.87,-2.28,8.62,0,2,7
-0.59,-0.79,6.36,0,2,7
0.3,0.67,5.44,0,2,7
0.56,1.11,5.85,0,2,7
-0.12,0.43,4.5,0,2,7
-0.65,-1.4,3.11,0,2,7
0.04,-2.4,3.07,0,2,7
0.12,-3.35,3.71,0,2,7
-0.17,-3.42,4.62,0,2,7
-0.03,-3.65,5.72,0,2,7
-1.13,-3.52,6.36,0,2,7
-3.65,-3.83,7.19,0,2,7
-4.39,-4.7,8.55,0,2,7
-5.05,-5.48,9.32,0,2,7
-5.25,-6.28,9.56,0,2,7
-7.11,-6.56,9.17,0,2,7
-7.95,-6.6,9.41,0,2,7
-7.66,-6.56,8.27,0,2,7
-7.59,-6.1,8.34,0,2,7
-7.53,-5.24,7.55,0,2,7
-7.46,-4.59,6.61,0,2,7
-6.81,-4.15,5.96,0,2,7
-6.55,-3.91,5.56,0,2,7
-6.76,-3.8,5.09,0,2,7
-5.93,-3.86,5.19,0,2,7
-5.86,-3.34,4.88,0,2,7
-5.54,-3.08,4.86,0,2,7
-5.31,-2.8,5.2,0,2,7
-5.15,-3.15,5.06,0,2,7
-5.31,-3.52,4.84,0,2,7
-5.53,-3.8,4.84,0,2,7
-5.71,-4.24,5.51,0,2,7
-5.39,-4.9,6.42,0,2,7
-5.36,-5.56,6.67,0,2,7
-5.13,-5.76,6.72,0,2,7
-5.16,-5.55,6.72,0,2,7
-5.08,-5.09,7.08,0,2,7
-4.72,-4.67,7.67,0,2,7
-4.91,-4.44,7.54,0,2,7
-5.02,-4.49,7.46,0,2,7
-5.03,-4.39,7.52,0,2,7
-4.67,-4.15,7.62,0,2,7
-4.44,-3.69,7.96,0,2,7
-3.76,-3.28,8.37,0,2,7
-3.98,-3.23,8.28,0,2,7
-4.34,-3.59,7.86,0,2,7
-4.85,-3.82,6.67,0,2,7
-4.8,-3.84,6.57,0,2,7
-4.48,-3.91,7.33,0,2,7
-3.95,-3.9,6.9,0,2,7
-4.51,-3.81,6.59,0,2,7
-4.13,-3.91,6.87,0,2,7
-4.65,-3.58,7.1,0,2,7
-5.35,-3.09,6.9,0,2,7
-5.37,-2.93,7.21,0,2,7
-6.01,-3.68,6.74,0,2,7
-5.56,-4.39,7.05,0,2,7
-5.88,-3.95,7.34,0,2,7
-6.22,-2.45,7.32,0,2,7
-6.71,-1.77,7.0,0,2,7
-6.39,-1.84,6.87,0,2,7
-7.84,-2.32,6.56,0,2,7
-7.08,-2.19,6.61,0,2,7
-7.63,-0.93,6.28,0,2,7
-7.75,0.16,6.37,0,2,7
-7.63,0.42,6.56,0,2,7
-7.17,0.27,7.33,0,2,7
-7.95,0.54,6.69,0,2,7
-8.69,1.21,6.67,0,2,7
-9.33,0.84,7.19,0,2,7
-8.82,1.08,7.22,0,2,7
-8.84,1.51,6.91,0,2,7
-9.13,1.26,6.55,0,2,7
-10.06,-0.59,-3.0,0,2,8
-12.75,-3.94,-6.88,0,2,8
-11.68,-7.47,-10.86,0,2,8
-12.4,-13.1,-11.64,0,2,8
-13.45,-12.95,-12.66,0,2,8
-12.25,-7.76,-11.64,0,2,8
-9.43,-0.65,-6.6,0,2,8
-10.35,6.12,-2.66,0,2,8
-10.16,12.49,5.7,0,2,8
-5.22,14.48,10.22,0,2,8
-11.67,9.98,11.41,0,2,8
-15.11,6.1,4.52,0,2,8
-5.14,0.59,14.34,0,2,8
-2.44,-1.45,18.21,0,2,8
-2.5,-0.04,19.62,0,2,8
-3.1,1.01,19.62,0,2,8
-2.64,1.08,19.62,0,2,8
-0.76,-2.25,19.62,0,2,8
-0.39,-3.51,17.5,0,2,8
-1.96,0.74,14.79,0,2,8
-2.18,0.46,12.61,0,2,8
0.08,-2.24,9.91,0,2,8
0.87,-2.28,8.62,0,2,8
-0.59,-0.79,6.36,0,2,8
0.3,0.67,5.44,0,2,8
0.56,1.11,5.85,0,2,8
-0.12,0.43,4.5,0,2,8
-0.65,-1.4,3.11,0,2,8
0.04,-2.4,3.07,0,2,8
0.12,-3.35,3.71,0,2,8
-0.17,-3.42,4.62,0,2,8
-0.03,-3.65,5.72,0,2,8
-1.13,-3.52,6.36,0,2,8
-3.65,-3.83,7.19,0,2,8
-4.39,-4.7,8.55,0,2,8
-5.05,-5.48,9.32,0,2,8
-5.25,-6.28,9.56,0,2,8
-7.11,-6.56,9.17,0,2,8
-7.95,-6.6,9.41,0,2,8
-7.66,-6.56,8.27,0,2,8
-7.59,-6.1,8.34,0,2,8
-7.53,-5.24,7.55,0,2,8
-7.46,-4.59,6.61,0,2,8
-6.81,-4.15,5.96,0,2,8
-6.55,-3.91,5.56,0,2,8
-6.76,-3.8,5.09,0,2,8
-5.93,-3.86,5.19,0,2,8
-5.86,-3.34,4.88,0,2,8
-5.54,-3.08,4.86,0,2,8
-5.31,-2.8,5.2,0,2,8
-5.15,-3.15,5.06,0,2,8
-5.31,-3.52,4.84,0,2,8
-5.53,-3.8,4.84,0,2,8
-5.71,-4.24,5.51,0,2,8
-5.39,-4.9,6.42,0,2,8
-5.36,-5.56,6.67,0,2,8
-5.13,-5.76,6.72,0,2,8
-5.16,-5.55,6.72,0,2,8
-5.08,-5.09,7.08,0,2,8
-4.72,-4.67,7.67,0,2,8
-4.91,-4.44,7.54,0,2,8
-5.02,-4.49,7.46,0,2,8
-5.03,-4.39,7.52,0,2,8
-4.67,-4.15,7.62,0,2,8
-4.44,-3.69,7.96,0,2,8
-3.76,-3.28,8.37,0,2,8
-3.98,-3.23,8.28,0,2,8
-4.34,-3.59,7.86,0,2,8
-4.85,-3.82,6.67,0,2,8
-4.8,-3.84,6.57,0,2,8
-4.48,-3.91,7.33,0,2,8
-3.95,-3.9,6.9,0,2,8
-4.51,-3.81,6.59,0,2,8
-4.13,-3.91,6.87,0,2,8
-4.65,-3.58,7.1,0,2,8
-5.35,-3.09,6.9,0,2,8
-5.37,-2.93,7.21,0,2,8
-6.01,-3.68,6.74,0,2,8
-5.56,-4.39,7.05,0,2,8
-5.88,-3.95,7.34,0,2,8
-6.22,-2.45,7.32,0,2,8
-6.71,-1.77,7.0,0,2,8
-6.39,-1.84,6.87,0,2,8
-7.84,-2.32,6.56,0,2,8
-7.08,-2.19,6.61,0,2,8
-7.63,-0.93,6.28,0,2,8
-7.75,0.16,6.37,0,2,8
-7.63,0.42,6.56,0,2,8
-7.17,0.27,7.33,0,2,8
-7.95,0.54,6.69,0,2,8
-8.69,1.21,6.67,0,2,8
-9.33,0.84,7.19,0,2,8
-8.82,1.08,7.22,0,2,8
-8.84,1.51,6.91,0,2,8
-9.13,1.26,6.55,0,2,8
-8.98,1.48,6.27,0,2,8
-8.95,1.5,6.63,0,2,8
-9.21,0.87,5.76,0,2,8
-9.2,1.16,4.83,0,2,8
-8.92,0.93,4.89,0,2,8
-12.25,-7.76,-11.64,0,2,9
-9.43,-0.65,-6.6,0,2,9
-10.35,6.12,-2.66,0,2,9
-10.16,12.49,5.7,0,2,9
-5.22,14.48,10.22,0,2,9
-11.67,9.98,11.41,0,2,9
-15.11,6.1,4.52,0,2,9
-5.14,0.59,14.34,0,2,9
-2.44,-1.45,18.21,0,2,9
-2.5,-0.04,19.62,0,2,9
-3.1,1.01,19.62,0,2,9
-2.64,1.08,19.62,0,2,9
-0.76,-2.25,19.62,0,2,9
-0.39,-3.51,17.5,0,2,9
-1.96,0.74,14.79,0,2,9
-2.18,0.46,12.61,0,2,9
0.08,-2.24,9.91,0,2,9
0.87,-2.28,8.62,0,2,9
-0.59,-0.79,6.36,0,2,9
0.3,0.67,5.44,0,2,9
0.56,1.11,5.85,0,2,9
-0.12,0.43,4.5,0,2,9
-0.65,-1.4,3.11,0,2,9
0.04,-2.4,3.07,0,2,9
0.12,-3.35,3.71,0,2,9
-0.17,-3.42,4.62,0,2,9
-0.03,-3.65,5.72,0,2,9
-1.13,-3.52,6.36,0,2,9
-3.65,-3.83,7.19,0,2,9
-4.39,-4.7,8.55,0,2,9
-5.05,-5.48,9.32,0,2,9
-5.25,-6.28,9.56,0,2,9
-7.11,-6.56,9.17,0,2,9
-7.95,-6.6,9.41,0,2,9
-7.66,-6.56,8.27,0,2,9
-7.59,-6.1,8.34,0,2,9
-7.53,-5.24,7.55,0,2,9
-7.46,-4.59,6.61,0,2,9
-6.81,-4.15,5.96,0,2,9
-6.55,-3.91,5.56,0,2,9
-6.76,-3.8,5.09,0,2,9
-5.93,-3.86,5.19,0,2,9
-5.86,-3.34,4.88,0,2,9
-5.54,-3.08,4.86,0,2,9
-5.31,-2.8,5.2,0,2,9
-5.15,-3.15,5.06,0,2,9
-5.31,-3.52,4.84,0,2,9
-5.53,-3.8,4.84,0,2,9
-5.71,-4.24,5.51,0,2,9
-5.39,-4.9,6.42,0,2,9
-5.36,-5.56,6.67,0,2,9
-5.13,-5.76,6.72,0,2,9
-5.16,-5.55,6.72,0,2,9
-5.08,-5.09,7.08,0,2,9
-4.72,-4.67,7.67,0,2,9
-4.91,-4.44,7.54,0,2,9
-5.02,-4.49,7.46,0,2,9
-5.03,-4.39,7.52,0,2,9
-4.67,-4.15,7.62,0,2,9
-4.44,-3.69,7.96,0,2,9
-3.76,-3.28,8.37,0,2,9
-3.98,-3.23,8.28,0,2,9
-4.34,-3.59,7.86,0,2,9
-4.85,-3.82,6.67,0,2,9
-4.8,-3.84,6.57,0,2,9
-4.48,-3.91,7.33,0,2,9
-3.95,-3.9,6.9,0,2,9
-4.51,-3.81,6.59,0,2,9
-4.13,-3.91,6.87,0,2,9
-4.65,-3.58,7.1,0,2,9
-5.35,-3.09,6.9,0,2,9
-5.37,-2.93,7.21,0,2,9
-6.01,-3.68,6.74,0,2,9
-5.56,-4.39,7.05,0,2,9
-5.88,-3.95,7.34,0,2,9
-6.22,-2.45,7.32,0,2,9
-6.71,-1.77,7.0,0,2,9
-6.39,-1.84,6.87,0,2,9
-7.84,-2.32,6.56,0,2,9
-7.08,-2.19,6.61,0,2,9
-7.63,-0.93,6.28,0,2,9
-7.75,0.16,6.37,0,2,9
-7.63,0.42,6.56,0,2,9
-7.17,0.27,7.33,0,2,9
-7.95,0.54,6.69,0,2,9
-8.69,1.21,6.67,0,2,9
-9.33,0.84,7.19,0,2,9
-8.82,1.08,7.22,0,2,9
-8.84,1.51,6.91,0,2,9
-9.13,1.26,6.55,0,2,9
-8.98,1.48,6.27,0,2,9
-8.95,1.5,6.63,0,2,9
-9.21,0.87,5.76,0,2,9
-9.2,1.16,4.83,0,2,9
-8.92,0.93,4.89,0,2,9
-8.31,0.97,4.56,0,2,9
-8.75,0.64,4.04,0,2,9
-8.81,-0.72,3.44,0,2,9
-8.26,-1.87,3.09,0,2,9
-7.73,-2.32,2.63,0,2,9
-11.67,9.98,11.41,0,2,10
-15.11,6.1,4.52,0,2,10
-5.14,0.59,14.34,0,2,10
-2.44,-1.45,18.21,0,2,10
-2.5,-0.04,19.62,0,2,10
-3.1,1.01,19.62,0,2,10
-2.64,1.08,19.62,0,2,10
-0.76,-2.25,19.62,0,2,10
-0.39,-3.51,17.5,0,2,10
-1.96,0.74,14.79,0,2,10
-2.18,0.46,12.61,0,2,10
0.08,-2.24,9.91,0,2,10
0.87,-2.28,8.62,0,2,10
-0.59,-0.79,6.36,0,2,10
0.3,0.67,5.44,0,2,10
0.56,1.11,5.85,0,2,10
-0.12,0.43,4.5,0,2,10
-0.65,-1.4,3.11,0,2,10
0.04,-2.4,3.07,0,2,10
0.12,-3.35,3.71,0,2,10
-0.17,-3.42,4.62,0,2,10
-0.03,-3.65,5.72,0,2,10
-1.13,-3.52,6.36,0,2,10
-3.65,-3.83,7.19,0,2,10
-4.39,-4.7,8.55,0,2,10
-5.05,-5.48,9.32,0,2,10
-5.25,-6.28,9.56,0,2,10
-7.11,-6.56,9.17,0,2,10
-7.95,-6.6,9.41,0,2,10
-7.66,-6.56,8.27,0,2,10
-7.59,-6.1,8.34,0,2,10
-7.53,-5.24,7.55,0,2,10
-7.46,-4.59,6.61,0,2,10
-6.81,-4.15,5.96,0,2,10
-6.55,-3.91,5.56,0,2,10
-6.76,-3.8,5.09,0,2,10
-5.93,-3.86,5.19,0,2,10
-5.86,-3.34,4.88,0,2,10
-5.54,-3.08,4.86,0,2,10
-5.31,-2.8,5.2,0,2,10
-5.15,-3.15,5.06,0,2,10
-5.31,-3.52,4.84,0,2,10
-5.53,-3.8,4.84,0,2,10
-5.71,-4.24,5.51,0,2,10
-5.39,-4.9,6.42,0,2,10
-5.36,-5.56,6.67,0,2,10
-5.13,-5.76,6.72,0,2,10
-5.16,-5.55,6.72,0,2,10
-5.08,-5.09,7.08,0,2,10
-4.72,-4.67,7.67,0,2,10
-4.91,-4.44,7.54,0,2,10
-5.02,-4.49,7.46,0,2,10
-5.03,-4.39,7.52,0,2,10
-4.67,-4.15,7.62,0,2,10
-4.44,-3.69,7.96,0,2,10
-3.76,-3.28,8.37,0,2,10
-3.98,-3.23,8.28,0,2,10
-4.34,-3.59,7.86,0,2,10
-4.85,-3.82,6.67,0,2,10
-4.8,-3.84,6.57,0,2,10
-4.48,-3.91,7.33,0,2,10
-3.95,-3.9,6.9,0,2,10
-4.51,-3.81,6.59,0,2,10
-4.13,-3.91,6.87,0,2,10
-4.65,-3.58,7.1,0,2,10
-5.35,-3.09,6.9,0,2,10
-5.37,-2.93,7.21,0,2,10
-6.01,-3.68,6.74,0,2,10
-5.56,-4.39,7.05,0,2,10
-5.88,-3.95,7.34,0,2,10
-6.22,-2.45,7.32,0,2,10
-6.71,-1.77,7.0,0,2,10
-6.39,-1.84,6.87,0,2,10
-7.84,-2.32,6.56,0,2,10
-7.08,-2.19,6.61,0,2,10
-7.63,-0.93,6.28,0,2,10
-7.75,0.16,6.37,0,2,10
-7.63,0.42,6.56,0,2,10
-7.17,0.27,7.33,0,2,10
-7.95,0.54,6.69,0,2,10
-8.69,1.21,6.67,0,2,10
-9.33,0.84,7.19,0,2,10
-8.82,1.08,7.22,0,2,10
-8.84,1.51,6.91,0,2,10
-9.13,1.26,6.55,0,2,10
-8.98,1.48,6.27,0,2,10
-8.95,1.5,6.63,0,2,10
-9.21,0.87,5.76,0,2,10
-9.2,1.16,4.83,0,2,10
-8.92,0.93,4.89,0,2,10
-8.31,0.97,4.56,0,2,10
-8.75,0.64,4.04,0,2,10
-8.81,-0.72,3.44,0,2,10
-8.26,-1.87,3.09,0,2,10
-7.73,-2.32,2.63,0,2,10
-7.7,-3.54,2.66,0,2,10
-9.54,-4.43,1.93,0,2,10
-10.12,-4.79,1.29,0,2,10
-9.95,-3.79,1.42,0,2,10
-9.67,-2.79,1.9,0,2,10
-7.32,-2.79,-4.22,1,3,1
-7.42,-3.11,-3.96,1,3,1
-7.78,-1.15,-3.02,1,3,1
-7.43,-0.38,-1.66,1,3,1
-7.42,-0.21,-0.9,1,3,1
-6.67,0.62,-1.02,0,3,1
-5.03,-0.2,-2.04,0,3,1
-3.97,-3.85,-3.02,0,3,1
-3.43,-5.37,-3.53,0,3,1
-7.04,-6.18,-9.18,0,3,1
-7.75,-5.44,-7.32,0,3,1
-6.61,-4.16,-3.61,0,3,1
-6.55,-2.22,-4.36,0,3,1
-8.5,-1.13,-4.64,0,3,1
-9.5,-0.55,-4.09,0,3,1
-9.11,-3.03,-5.04,0,3,1
-7.44,-5.53,-5.62,0,3,1
-6.66,-4.55,-4.93,0,3,1
-9.65,-2.05,-4.13,0,3,1
-12.23,-2.23,-3.78,0,3,1
-11.11,-4.0,-5.11,0,3,1
-10.4,-6.5,-6.11,0,3,1
-11.69,-7.29,-5.96,0,3,1
-14.65,-5.59,-4.34,0,3,1
-19.62,-15.94,1.37,0,3,1
-10.71,-3.14,1.02,0,3,1
-6.55,-1.99,3.51,0,3,1
-8.47,-10.16,-1.76,0,3,1
-8.58,-7.89,-6.12,0,3,1
-6.16,-4.57,-0.8,0,3,1
-1.93,-4.46,4.46,0,3,1
8.77,-11.61,6.39,0,3,1
8.05,-6.56,0.92,0,3,1
4.63,-7.36,1.97,0,3,1
6.98,-10.91,6.35,0,3,1
5.3,-13.41,0.22,0,3,1
8.26,-12.24,0.53,0,3,1
7.65,-10.9,3.58,0,3,1
7.44,-12.21,4.26,0,3,1
6.69,-13.23,1.83,0,3,1
5.85,-11.45,2.27,0,3,1
5.25,-10.52,1.06,0,3,1
5.45,-10.4,2.08,0,3,1
4.24,-10.3,0.36,0,3,1
3.77,-10.08,-0.45,0,3,1
2.46,-9.24,-0.85,0,3,1
2.66,-9.49,-0.63,0,3,1
1.28,-8.62,-0.8,0,3,1
0.82,-8.84,-1.05,0,3,1
1.37,-9.94,-0.69,0,3,1
1.17,-10.08,-2.03,0,3,1
1.53,-9.7,-1.31,0,3,1
1.48,-9.62,-1.11,0,3,1
1.14,-8.77,-1.11,0,3,1
0.88,-9.31,-1.84,0,3,1
0.93,-9.59,-2.04,0,3,1
1.13,-9.71,-2.23,0,3,1
1.14,-9.7,-2.12,0,3,1
1.45,-9.49,-2.01,0,3,1
1.48,-9.38,-2.24,0,3,1
2.05,-10.77,-3.21,0,3,1
3.34,-11.71,-3.52,0,3,1
1.42,-10.88,-4.92,0,3,1
2.12,-8.9,-3.68,0,3,1
2.21,-7.58,-2.61,0,3,1
1.01,-7.31,-3.23,0,3,1
1.78,-8.67,-3.09,0,3,1
2.1,-9.98,-3.71,0,3,1
2.26,-10.09,-4.26,0,3,1
2.15,-9.54,-4.21,0,3,1
2.13,-8.8,-3.66,0,3,1
2.4,-8.52,-3.18,0,3,1
2.4,-8.82,-3.3,0,3,1
2.17,-9.41,-3.63,0,3,1
2.14,-9.51,-3.54,0,3,1
2.25,-9.24,-3.31,0,3,1
2.09,-8.98,-3.35,0,3,1
1.9,-8.88,-3.33,0,3,1
1.97,-9.02,-3.33,0,3,1
1.83,-9.07,-3.14,0,3,1
1.9,-9.22,-3.23,0,3,1
1.85,-9.34,-3.39,0,3,1
2.04,-9.31,-3.18,0,3,1
1.94,-9.14,-3.01,0,3,1
2.03,-9.13,-3.02,0,3,1
1.93,-9.26,-3.16,0,3,1
1.87,-9.29,-3.29,0,3,1
1.84,-9.32,-3.3,0,3,1
1.99,-9.22,-3.14,0,3,1
1.96,-9.23,-3.1,0,3,1
1.88,-9.32,-3.16,0,3,1
1.92,-9.23,-3.19,0,3,1
1.97,-9.19,-2.89,0,3,1
1.95,-9.18,-3.15,0,3,1
1.96,-9.28,-3.12,0,3,1
1.99,-9.29,-3.05,0,3,1
1.97,-9.19,-3.12,0,3,1
2.0,-9.26,-3.1,0,3,1
1.89,-9.21,-3.34,0,3,1
2.02,-9.26,-2.98,0,3,1
-6.67,0.62,-1.02,0,3,2
-5.03,-0.2,-2.04,0,3,2
-3.97,-3.85,-3.02,0,3,2
-3.43,-5.37,-3.53,0,3,2
-7.04,-6.18,-9.18,0,3,2
-7.75,-5.44,-7.32,0,3,2
-6.61,-4.16,-3.61,0,3,2
-6.55,-2.22,-4.36,0,3,2
-8.5,-1.13,-4.64,0,3,2
-9.5,-0.55,-4.09,0,3,2
-9.11,-3.03,-5.04,0,3,2
-7.44,-5.53,-5.62,0,3,2
-6.66,-4.55,-4.93,0,3,2
-9.65,-2.05,-4.13,0,3,2
-12.23,-2.23,-3.78,0,3,2
-11.11,-4.0,-5.11,0,3,2
-10.4,-6.5,-6.11,0,3,2
-11.69,-7.29,-5.96,0,3,2
-14.65,-5.59,-4.34,0,3,2
-19.62,-15.94,1.37,0,3,2
-10.71,-3.14,1.02,0,3,2
-6.55,-1.99,3.51,0,3,2
-8.47,-10.16,-1.76,0,3,2
-8.58,-7.89,-6.12,0,3,2
-6.16,-4.57,-0.8,0,3,2
-1.93,-4.46,4.46,0,3,2
8.77,-11.61,6.39,0,3,2
8.05,-6.56,0.92,0,3,2
4.63,-7.36,1.97,0,3,2
6.98,-10.91,6.35,0,3,2
5.3,-13.41,0.22,0,3,2
8.26,-12.24,0.53,0,3,2
7.65,-10.9,3.58,0,3,2
7.44,-12.21,4.26,0,3,2
6.69,-13.23,1.83,0,3,2
5.85,-11.45,2.27,0,3,2
5.25,-10.52,1.06,0,3,2
5.45,-10.4,2.08,0,3,2
4.24,-10.3,0.36,0,3,2
3.77,-10.08,-0.45,0,3,2
2.46,-9.24,-0.85,0,3,2
2.66,-9.49,-0.63,0,3,2
1.28,-8.62,-0.8,0,3,2
0.82,-8.84,-1.05,0,3,2
1.37,-9.94,-0.69,0,3,2
1.17,-10.08,-2.03,0,3,2
1.53,-9.7,-1.31,0,3,2
1.48,-9.62,-1.11,0,3,2
1.14,-8.77,-1.11,0,3,2
0.88,-9.31,-1.84,0,3,2
0.93,-9.59,-2.04,0,3,2
1.13,-9.71,-2.23,0,3,2
1.14,-9.7,-2.12,0,3,2
1.45,-9.49,-2.01,0,3,2
1.48,-9.38,-2.24,0,3,2
2.05,-10.77,-3.21,0,3,2
3.34,-11.71,-3.52,0,3,2
1.42,-10.88,-4.92,0,3,2
2.12,-8.9,-3.68,0,3,2
2.21,-7.58,-2.61,0,3,2
1.01,-7.31,-3.23,0,3,2
1.78,-8.67,-3.09,0,3,2
2.1,-9.98,-3.71,0,3,2
2.26,-10.09,-4.26,0,3,2
2.15,-9.54,-4.21,0,3,2
2.13,-8.8,-3.66,0,3,2
2.4,-8.52,-3.18,0,3,2
2.4,-8.82,-3.3,0,3,2
2.17,-9.41,-3.63,0,3,2
2.14,-9.51,-3.54,0,3,2
2.25,-9.24,-3.31,0,3,2
2.09,-8.98,-3.35,0,3,2
1.9,-8.88,-3.33,0,3,2
1.97,-9.02,-3.33,0,3,2
1.83,-9.07,-3.14,0,3,2
1.9,-9.22,-3.23,0,3,2
1.85,-9.34,-3.39,0,3,2
2.04,-9.31,-3.18,0,3,2
1.94,-9.14,-3.01,0,3,2
2.03,-9.13,-3.02,0,3,2
1.93,-9.26,-3.16,0,3,2
1.87,-9.29,-3.29,0,3,2
1.84,-9.32,-3.3,0,3,2
1.99,-9.22,-3.14,0,3,2
1.96,-9.23,-3.1,0,3,2
1.88,-9.32,-3.16,0,3,2
1.92,-9.23,-3.19,0,3,2
1.97,-9.19,-2.89,0,3,2
1.95,-9.18,-3.15,0,3,2
1.96,-9.28,-3.12,0,3,2
1.99,-9.29,-3.05,0,3,2
1.97,-9.19,-3.12,0,3,2
2.0,-9.26,-3.1,0,3,2
1.89,-9.21,-3.34,0,3,2
2.02,-9.26,-2.98,0,3,2
2.05,-9.33,-3.02,0,3,2
1.94,-9.21,-3.02,0,3,2
2.07,-9.24,-2.97,0,3,2
2.05,-9.22,-3.05,0,3,2
2.07,-9.24,-3.06,0,3,2
-7.75,-5.44,-7.32,0,3,3
-6.61,-4.16,-3.61,0,3,3
-6.55,-2.22,-4.36,0,3,3
-8.5,-1.13,-4.64,0,3,3
-9.5,-0.55,-4.09,0,3,3
-9.11,-3.03,-5.04,0,3,3
-7.44,-5.53,-5.62,0,3,3
-6.66,-4.55,-4.93,0,3,3
-9.65,-2.05,-4.13,0,3,3
-12.23,-2.23,-3.78,0,3,3
-11.11,-4.0,-5.11,0,3,3
-10.4,-6.5,-6.11,0,3,3
-11.69,-7.29,-5.96,0,3,3
-14.65,-5.59,-4.34,0,3,3
-19.62,-15.94,1.37,0,3,3
-10.71,-3.14,1.02,0,3,3
-6.55,-1.99,3.51,0,3,3
-8.47,-10.16,-1.76,0,3,3
-8.58,-7.89,-6.12,0,3,3
-6.16,-4.57,-0.8,0,3,3
-1.93,-4.46,4.46,0,3,3
8.77,-11.61,6.39,0,3,3
8.05,-6.56,0.92,0,3,3
4.63,-7.36,1.97,0,3,3
6.98,-10.91,6.35,0,3,3
5.3,-13.41,0.22,0,3,3
8.26,-12.24,0.53,0,3,3
7.65,-10.9,3.58,0,3,3
7.44,-12.21,4.26,0,3,3
6.69,-13.23,1.83,0,3,3
5.85,-11.45,2.27,0,3,3
5.25,-10.52,1.06,0,3,3
5.45,-10.4,2.08,0,3,3
4.24,-10.3,0.36,0,3,3
3.77,-10.08,-0.45,0,3,3
2.46,-9.24,-0.85,0,3,3
2.66,-9.49,-0.63,0,3,3
1.28,-8.62,-0.8,0,3,3
0.82,-8.84,-1.05,0,3,3
1.37,-9.94,-0.69,0,3,3
1.17,-10.08,-2.03,0,3,3
1.53,-9.7,-1.31,0,3,3
1.48,-9.62,-1.11,0,3,3
1.14,-8.77,-1.11,0,3,3
0.88,-9.31,-1.84,0,3,3
0.93,-9.59,-2.04,0,3,3
1.13,-9.71,-2.23,0,3,3
1.14,-9.7,-2.12,0,3,3
1.45,-9.49,-2.01,0,3,3
1.48,-9.38,-2.24,0,3,3
2.05,-10.77,-3.21,0,3,3
3.34,-11.71,-3.52,0,3,3
1.42,-10.88,-4.92,0,3,3
2.12,-8.9,-3.68,0,3,3
2.21,-7.58,-2.61,0,3,3
1.01,-7.31,-3.23,0,3,3
1.78,-8.67,-3.09,0,3,3
2.1,-9.98,-3.71,0,3,3
2.26,-10.09,-4.26,0,3,3
2.15,-9.54,-4.21,0,3,3
2.13,-8.8,-3.66,0,3,3
2.4,-8.52,-3.18,0,3,3
2.4,-8.82,-3.3,0,3,3
2.17,-9.41,-3.63,0,3,3
2.14,-9.51,-3.54,0,3,3
2.25,-9.24,-3.31,0,3,3
2.09,-8.98,-3.35,0,3,3
1.9,-8.88,-3.33,0,3,3
1.97,-9.02,-3.33,0,3,3
1.83,-9.07,-3.14,0,3,3
1.9,-9.22,-3.23,0,3,3
1.85,-9.34,-3.39,0,3,3
2.04,-9.31,-3.18,0,3,3
1.94,-9.14,-3.01,0,3,3
2.03,-9.13,-3.02,0,3,3
1.93,-9.26,-3.16,0,3,3
1.87,-9.29,-3.29,0,3,3
1.84,-9.32,-3.3,0,3,3
1.99,-9.22,-3.14,0,3,3
1.96,-9.23,-3.1,0,3,3
1.88,-9.32,-3.16,0,3,3
1.92,-9.23,-3.19,0,3,3
1.97,-9.19,-2.89,0,3,3
1.95,-9.18,-3.15,0,3,3
1.96,-9.28,-3.12,0,3,3
1.99,-9.29,-3.05,0,3,3
1.97,-9.19,-3.12,0,3,3
2.0,-9.26,-3.1,0,3,3
1.89,-9.21,-3.34,0,3,3
2.02,-9.26,-2.98,0,3,3
2.05,-9.33,-3.02,0,3,3
1.94,-9.21,-3.02,0,3,3
2.07,-9.24,-2.97,0,3,3
2.05,-9.22,-3.05,0,3,3
2.07,-9.24,-3.06,0,3,3
1.97,-9.21,-3.09,0,3,3
2.04,-9.29,-3.14,0,3,3
1.99,-9.24,-3.09,0,3,3
2.03,-9.16,-3.04,0,3,3
2.01,-9.13,-3.11,0,3,3
-9.11,-3.03,-5.04,0,3,4
-7.44,-5.53,-5.62,0,3,4
-6.66,-4.55,-4.93,0,3,4
-9.65,-2.05,-4.13,0,3,4
-12.23,-2.23,-3.78,0,3,4
-11.11,-4.0,-5.11,0,3,4
-10.4,-6.5,-6.11,0,3,4
-11.69,-7.29,-5.96,0,3,4
-14.65,-5.59,-4.34,0,3,4
-19.62,-15.94,1.37,0,3,4
-10.71,-3.14,1.02,0,3,4
-6.55,-1.99,3.51,0,3,4
-8.47,-10.16,-1.76,0,3,4
-8.58,-7.89,-6.12,0,3,4
-6.16,-4.57,-0.8,0,3,4
-1.93,-4.46,4.46,0,3,4
8.77,-11.61,6.39,0,3,4
8.05,-6.56,0.92,0,3,4
4.63,-7.36,1.97,0,3,4
6.98,-10.91,6.35,0,3,4
5.3,-13.41,0.22,0,3,4
8.26,-12.24,0.53,0,3,4
7.65,-10.9,3.58,0,3,4
7.44,-12.21,4.26,0,3,4
6.69,-13.23,1.83,0,3,4
5.85,-11.45,2.27,0,3,4
5.25,-10.52,1.06,0,3,4
5.45,-10.4,2.08,0,3,4
4.24,-10.3,0.36,0,3,4
3.77,-10.08,-0.45,0,3,4
2.46,-9.24,-0.85,0,3,4
2.66,-9.49,-0.63,0,3,4
1.28,-8.62,-0.8,0,3,4
0.82,-8.84,-1.05,0,3,4
1.37,-9.94,-0.69,0,3,4
1.17,-10.08,-2.03,0,3,4
1.53,-9.7,-1.31,0,3,4
1.48,-9.62,-1.11,0,3,4
1.14,-8.77,-1.11,0,3,4
0.88,-9.31,-1.84,0,3,4
0.93,-9.59,-2.04,0,3,4
1.13,-9.71,-2.23,0,3,4
1.14,-9.7,-2.12,0,3,4
1.45,-9.49,-2.01,0,3,4
1.48,-9.38,-2.24,0,3,4
2.05,-10.77,-3.21,0,3,4
3.34,-11.71,-3.52,0,3,4
1.42,-10.88,-4.92,0,3,4
2.12,-8.9,-3.68,0,3,4
2.21,-7.58,-2.61,0,3,4
1.01,-7.31,-3.23,0,3,4
1.78,-8.67,-3.09,0,3,4
2.1,-9.98,-3.71,0,3,4
2.26,-10.09,-4.26,0,3,4
2.15,-9.54,-4.21,0,3,4
2.13,-8.8,-3.66,0,3,4
2.4,-8.52,-3.18,0,3,4
2.4,-8.82,-3.3,0,3,4
2.17,-9.41,-3.63,0,3,4
2.14,-9.51,-3.54,0,3,4
2.25,-9.24,-3.31,0,3,4
2.09,-8.98,-3.35,0,3,4
1.9,-8.88,-3.33,0,3,4
1.97,-9.02,-3.33,0,3,4
1.83,-9.07,-3.14,0,3,4
1.9,-9.22,-3.23,0,3,4
1.85,-9.34,-3.39,0,3,4
2.04,-9.31,-3.18,0,3,4
1.94,-9.14,-3.01,0,3,4
2.03,-9.13,-3.02,0,3,4
1.93,-9.26,-3.16,0,3,4
1.87,-9.29,-3.29,0,3,4
1.84,-9.32,-3.3,0,3,4
1.99,-9.22,-3.14,0,3,4
1.96,-9.23,-3.1,0,3,4
1.88,-9.32,-3.16,0,3,4
1.92,-9.23,-3.19,0,3,4
1.97,-9.19,-2.89,0,3,4
1.95,-9.18,-3.15,0,3,4
1.96,-9.28,-3.12,0,3,4
1.99,-9.29,-3.05,0,3,4
1.97,-9.19,-3.12,0,3,4
2.0,-9.26,-3.1,0,3,4
1.89,-9.21,-3.34,0,3,4
2.02,-9.26,-2.98,0,3,4
2.05,-9.33,-3.02,0,3,4
1.94,-9.21,-3.02,0,3,4
2.07,-9.24,-2.97,0,3,4
2.05,-9.22,-3.05,0,3,4
2.07,-9.24,-3.06,0,3,4
1.97,-9.21,-3.09,0,3,4
2.04,-9.29,-3.14,0,3,4
1.99,-9.24,-3.09,0,3,4
2.03,-9.16,-3.04,0,3,4
2.01,-9.13,-3.11,0,3,4
1.96,-9.35,-3.15,0,3,4
2.06,-9.38,-2.89,0,3,4
1.91,-9.25,-3.04,0,3,4
1.93,-9.2,-3.21,0,3,4
2.02,-9.28,-3.08,0,3,4
-11.11,-4.0,-5.11,0,3,5
-10.4,-6.5,-6.11,0,3,5
-11.69,-7.29,-5.96,0,3,5
-14.65,-5.59,-4.34,0,3,5
-19.62,-15.94,1.37,0,3,5
-10.71,-3.14,1.02,0,3,5
-6.55,-1.99,3.51,0,3,5
-8.47,-10.16,-1.76,0,3,5
-8.58,-7.89,-6.12,0,3,5
-6.16,-4.57,-0.8,0,3,5
-1.93,-4.46,4.46,0,3,5
8.77,-11.61,6.39,0,3,5
8.05,-6.56,0.92,0,3,5
4.63,-7.36,1.97,0,3,5
6.98,-10.91,6.35,0,3,5
5.3,-13.41,0.22,0,3,5
8.26,-12.24,0.53,0,3,5
7.65,-10.9,3.58,0,3,5
7.44,-12.21,4.26,0,3,5
6.69,-13.23,1.83,0,3,5
5.85,-11.45,2.27,0,3,5
5.25,-10.52,1.06,0,3,5
5.45,-10.4,2.08,0,3,5
4.24,-10.3,0.36,0,3,5
3.77,-10.08,-0.45,0,3,5
2.46,-9.24,-0.85,0,3,5
2.66,-9.49,-0.63,0,3,5
1.28,-8.62,-0.8,0,3,5
0.82,-8.84,-1.05,0,3,5
1.37,-9.94,-0.69,0,3,5
1.17,-10.08,-2.03,0,3,5
1.53,-9.7,-1.31,0,3,5
1.48,-9.62,-1.11,0,3,5
1.14,-8.77,-1.11,0,3,5
0.88,-9.31,-1.84,0,3,5
0.93,-9.59,-2.04,0,3,5
1.13,-9.71,-2.23,0,3,5
1.14,-9.7,-2.12,0,3,5
1.45,-9.49,-2.01,0,3,5
1.48,-9.38,-2.24,0,3,5
2.05,-10.77,-3.21,0,3,5
3.34,-11.71,-3.52,0,3,5
1.42,-10.88,-4.92,0,3,5
2.12,-8.9,-3.68,0,3,5
2.21,-7.58,-2.61,0,3,5
1.01,-7.31,-3.23,0,3,5
1.78,-8.67,-3.09,0,3,5
2.1,-9.98,-3.71,0,3,5
2.26,-10.09,-4.26,0,3,5
2.15,-9.54,-4.21,0,3,5
2.13,-8.8,-3.66,0,3,5
2.4,-8.52,-3.18,0,3,5
2.4,-8.82,-3.3,0,3,5
2.17,-9.41,-3.63,0,3,5
2.14,-9.51,-3.54,0,3,5
2.25,-9.24,-3.31,0,3,5
2.09,-8.98,-3.35,0,3,5
1.9,-8.88,-3.33,0,3,5
1.97,-9.02,-3.33,0,3,5
1.83,-9.07,-3.14,0,3,5
1.9,-9.22,-3.23,0,3,5
1.85,-9.34,-3.39,0,3,5
2.04,-9.31,-3.18,0,3,5
1.94,-9.14,-3.01,0,3,5
2.03,-9.13,-3.02,0,3,5
1.93,-9.26,-3.16,0,3,5
1.87,-9.29,-3.29,0,3,5
1.84,-9.32,-3.3,0,3,5
1.99,-9.22,-3.14,0,3,5
1.96,-9.23,-3.1,0,3,5
1.88,-9.32,-3.16,0,3,5
1.92,-9.23,-3.19,0,3,5
1.97,-9.19,-2.89,0,3,5
1.95,-9.18,-3.15,0,3,5
1.96,-9.28,-3.12,0,3,5
1.99,-9.29,-3.05,0,3,5
1.97,-9.19,-3.12,0,3,5
2.0,-9.26,-3.1,0,3,5
1.89,-9.21,-3.34,0,3,5
2.02,-9.26,-2.98,0,3,5
2.05,-9.33,-3.02,0,3,5
1.94,-9.21,-3.02,0,3,5
2.07,-9.24,-2.97,0,3,5
2.05,-9.22,-3.05,0,3,5
2.07,-9.24,-3.06,0,3,5
1.97,-9.21,-3.09,0,3,5
2.04,-9.29,-3.14,0,3,5
1.99,-9.24,-3.09,0,3,5
2.03,-9.16,-3.04,0,3,5
2.01,-9.13,-3.11,0,3,5
1.96,-9.35,-3.15,0,3,5
2.06,-9.38,-2.89,0,3,5
1.91,-9.25,-3.04,0,3,5
1.93,-9.2,-3.21,0,3,5
2.02,-9.28,-3.08,0,3,5
2.05,-9.33,-3.02,0,3,5
1.98,-9.28,-3.06,0,3,5
1.85,-9.22,-3.22,0,3,5
1.93,-9.22,-3.13,0,3,5
1.95,-9.23,-3.0,0,3,5
-10.71,-3.14,1.02,0,3,6
-6.55,-1.99,3.51,0,3,6
-8.47,-10.16,-1.76,0,3,6
-8.58,-7.89,-6.12,0,3,6
-6.16,-4.57,-0.8,0,3,6
-1.93,-4.46,4.46,0,3,6
8.77,-11.61,6.39,0,3,6
8.05,-6.56,0.92,0,3,6
4.63,-7.36,1.97,0,3,6
6.98,-10.91,6.35,0,3,6
5.3,-13.41,0.22,0,3,6
8.26,-12.24,0.53,0,3,6
7.65,-10.9,3.58,0,3,6
7.44,-12.21,4.26,0,3,6
6.69,-13.23,1.83,0,3,6
5.85,-11.45,2.27,0,3,6
5.25,-10.52,1.06,0,3,6
5.45,-10.4,2.08,0,3,6
4.24,-10.3,0.36,0,3,6
3.77,-10.08,-0.45,0,3,6
2.46,-9.24,-0.85,0,3,6
2.66,-9.49,-0.63,0,3,6
1.28,-8.62,-0.8,0,3,6
0.82,-8.84,-1.05,0,3,6
1.37,-9.94,-0.69,0,3,6
1.17,-10.08,-2.03,0,3,6
1.53,-9.7,-1.31,0,3,6
1.48,-9.62,-1.11,0,3,6
1.14,-8.77,-1.11,0,3,6
0.88,-9.31,-1.84,0,3,6
0.93,-9.59,-2.04,0,3,6
1.13,-9.71,-2.23,0,3,6
1.14,-9.7,-2.12,0,3,6
1.45,-9.49,-2.01,0,3,6
1.48,-9.38,-2.24,0,3,6
2.05,-10.77,-3.21,0,3,6
3.34,-11.71,-3.52,0,3,6
1.42,-10.88,-4.92,0,3,6
2.12,-8.9,-3.68,0,3,6
2.21,-7.58,-2.61,0,3,6
1.01,-7.31,-3.23,0,3,6
1.78,-8.67,-3.09,0,3,6
2.1,-9.98,-3.71,0,3,6
2.26,-10.09,-4.26,0,3,6
2.15,-9.54,-4.21,0,3,6
2.13,-8.8,-3.66,0,3,6
2.4,-8.52,-3.18,0,3,6
2.4,-8.82,-3.3,0,3,6
2.17,-9.41,-3.63,0,3,6
2.14,-9.51,-3.54,0,3,6
2.25,-9.24,-3.31,0,3,6
2.09,-8.98,-3.35,0,3,6
1.9,-8.88,-3.33,0,3,6
1.97,-9.02,-3.33,0,3,6
1.83,-9.07,-3.14,0,3,6
1.9,-9.22,-3.23,0,3,6
1.85,-9.34,-3.39,0,3,6
2.04,-9.31,-3.18,0,3,6
1.94,-9.14,-3.01,0,3,6
2.03,-9.13,-3.02,0,3,6
1.93,-9.26,-3.16,0,3,6
1.87,-9.29,-3.29,0,3,6
1.84,-9.32,-3.3,0,3,6
1.99,-9.22,-3.14,0,3,6
1.96,-9.23,-3.1,0,3,6
1.88,-9.32,-3.16,0,3,6
1.92,-9.23,-3.19,0,3,6
1.97,-9.19,-2.89,0,3,6
1.95,-9.18,-3.15,0,3,6
1.96,-9.28,-3.12,0,3,6
1.99,-9.29,-3.05,0,3,6
1.97,-9.19,-3.12,0,3,6
2.0,-9.26,-3.1,0,3,6
1.89,-9.21,-3.34,0,3,6
2.02,-9.26,-2.98,0,3,6
2.05,-9.33,-3.02,0,3,6
1.94,-9.21,-3.02,0,3,6
2.07,-9.24,-2.97,0,3,6
2.05,-9.22,-3.05,0,3,6
2.07,-9.24,-3.06,0,3,6
1.97,-9.21,-3.09,0,3,6
2.04,-9.29,-3.14,0,3,6
1.99,-9.24,-3.09,0,3,6
2.03,-9.16,-3.04,0,3,6
2.01,-9.13,-3.11,0,3,6
1.96,-9.35,-3.15,0,3,6
2.06,-9.38,-2.89,0,3,6
1.91,-9.25,-3.04,0,3,6
1.93,-9.2,-3.21,0,3,6
2.02,-9.28,-3.08,0,3,6
2.05,-9.33,-3.02,0,3,6
1.98,-9.28,-3.06,0,3,6
1.85,-9.22,-3.22,0,3,6
1.93,-9.22,-3.13,0,3,6
1.95,-9.23,-3.0,0,3,6
1.92,-9.28,-3.12,0,3,6
1.92,-9.25,-3.07,0,3,6
1.97,-9.27,-3.03,0,3,6
1.98,-9.21,-2.86,0,3,6
2.02,-9.24,-2.95,0,3,6
-1.93,-4.46,4.46,0,3,7
8.77,-11.61,6.39,0,3,7
8.05,-6.56,0.92,0,3,7
4.63,-7.36,1.97,0,3,7
6.98,-10.91,6.35,0,3,7
5.3,-13.41,0.22,0,3,7
8.26,-12.24,0.53,0,3,7
7.65,-10.9,3.58,0,3,7
7.44,-12.21,4.26,0,3,7
6.69,-13.23,1.83,0,3,7
5.85,-11.45,2.27,0,3,7
5.25,-10.52,1.06,0,3,7
5.45,-10.4,2.08,0,3,7
4.24,-10.3,0.36,0,3,7
3.77,-10.08,-0.45,0,3,7
2.46,-9.24,-0.85,0,3,7
2.66,-9.49,-0.63,0,3,7
1.28,-8.62,-0.8,0,3,7
0.82,-8.84,-1.05,0,3,7
1.37,-9.94,-0.69,0,3,7
1.17,-10.08,-2.03,0,3,7
1.53,-9.7,-1.31,0,3,7
1.48,-9.62,-1.11,0,3,7
1.14,-8.77,-1.11,0,3,7
0.88,-9.31,-1.84,0,3,7
0.93,-9.59,-2.04,0,3,7
1.13,-9.71,-2.23,0,3,7
1.14,-9.7,-2.12,0,3,7
1.45,-9.49,-2.01,0,3,7
1.48,-9.38,-2.24,0,3,7
2.05,-10.77,-3.21,0,3,7
3.34,-11.71,-3.52,0,3,7
1.42,-10.88,-4.92,0,3,7
2.12,-8.9,-3.68,0,3,7
2.21,-7.58,-2.61,0,3,7
1.01,-7.31,-3.23,0,3,7
1.78,-8.67,-3.09,0,3,7
2.1,-9.98,-3.71,0,3,7
2.26,-10.09,-4.26,0,3,7
2.15,-9.54,-4.21,0,3,7
2.13,-8.8,-3.66,0,3,7
2.4,-8.52,-3.18,0,3,7
2.4,-8.82,-3.3,0,3,7
2.17,-9.41,-3.63,0,3,7
2.14,-9.51,-3.54,0,3,7
2.25,-9.24,-3.31,0,3,7
2.09,-8.98,-3.35,0,3,7
1.9,-8.88,-3.33,0,3,7
1.97,-9.02,-3.33,0,3,7
1.83,-9.07,-3.14,0,3,7
1.9,-9.22,-3.23,0,3,7
1.85,-9.34,-3.39,0,3,7
2.04,-9.31,-3.18,0,3,7
1.94,-9.14,-3.01,0,3,7
2.03,-9.13,-3.02,0,3,7
1.93,-9.26,-3.16,0,3,7
1.87,-9.29,-3.29,0,3,7
1.84,-9.32,-3.3,0,3,7
1.99,-9.22,-3.14,0,3,7
1.96,-9.23,-3.1,0,3,7
1.88,-9.32,-3.16,0,3,7
1.92,-9.23,-3.19,0,3,7
1.97,-9.19,-2.89,0,3,7
1.95,-9.18,-3.15,0,3,7
1.96,-9.28,-3.12,0,3,7
1.99,-9.29,-3.05,0,3,7
1.97,-9.19,-3.12,0,3,7
2.0,-9.26,-3.1,0,3,7
1.89,-9.21,-3.34,0,3,7
2.02,-9.26,-2.98,0,3,7
2.05,-9.33,-3.02,0,3,7
1.94,-9.21,-3.02,0,3,7
2.07,-9.24,-2.97,0,3,7
2.05,-9.22,-3.05,0,3,7
2.07,-9.24,-3.06,0,3,7
1.97,-9.21,-3.09,0,3,7
2.04,-9.29,-3.14,0,3,7
1.99,-9.24,-3.09,0,3,7
2.03,-9.16,-3.04,0,3,7
2.01,-9.13,-3.11,0,3,7
1.96,-9.35,-3.15,0,3,7
2.06,-9.38,-2.89,0,3,7
1.91,-9.25,-3.04,0,3,7
1.93,-9.2,-3.21,0,3,7
2.02,-9.28,-3.08,0,3,7
2.05,-9.33,-3.02,0,3,7
1.98,-9.28,-3.06,0,3,7
1.85,-9.22,-3.22,0,3,7
1.93,-9.22,-3.13,0,3,7
1.95,-9.23,-3.0,0,3,7
1.92,-9.28,-3.12,0,3,7
1.92,-9.25,-3.07,0,3,7
1.97,-9.27,-3.03,0,3,7
1.98,-9.21,-2.86,0,3,7
2.02,-9.24,-2.95,0,3,7
1.96,-9.19,-3.12,0,3,7
2.03,-9.25,-3.05,0,3,7
1.9,-9.38,-3.08,0,3,7
2.01,-9.3,-3.1,0,3,7
2.07,-9.2,-2.96,0,3,7
5.3,-13.41,0.22,0,3,8
8.26,-12.24,0.53,0,3,8
7.65,-10.9,3.58,0,3,8
7.44,-12.21,4.26,0,3,8
6.69,-13.23,1.83,0,3,8
5.85,-11.45,2.27,0,3,8
5.25,-10.52,1.06,0,3,8
5.45,-10.4,2.08,0,3,8
4.24,-10.3,0.36,0,3,8
3.77,-10.08,-0.45,0,3,8
2.46,-9.24,-0.85,0,3,8
2.66,-9.49,-0.63,0,3,8
1.28,-8.62,-0.8,0,3,8
0.82,-8.84,-1.05,0,3,8
1.37,-9.94,-0.69,0,3,8
1.17,-10.08,-2.03,0,3,8
1.53,-9.7,-1.31,0,3,8
1.48,-9.62,-1.11,0,3,8
1.14,-8.77,-1.11,0,3,8
0.88,-9.31,-1.84,0,3,8
0.93,-9.59,-2.04,0,3,8
1.13,-9.71,-2.23,0,3,8
1.14,-9.7,-2.12,0,3,8
1.45,-9.49,-2.01,0,3,8
1.48,-9.38,-2.24,0,3,8
2.05,-10.77,-3.21,0,3,8
3.34,-11.71,-3.52,0,3,8
1.42,-10.88,-4.92,0,3,8
2.12,-8.9,-3.68,0,3,8
2.21,-7.58,-2.61,0,3,8
1.01,-7.31,-3.23,0,3,8
1.78,-8.67,-3.09,0,3,8
2.1,-9.98,-3.71,0,3,8
2.26,-10.09,-4.26,0,3,8
2.15,-9.54,-4.21,0,3,8
2.13,-8.8,-3.66,0,3,8
2.4,-8.52,-3.18,0,3,8
2.4,-8.82,-3.3,0,3,8
2.17,-9.41,-3.63,0,3,8
2.14,-9.51,-3.54,0,3,8
2.25,-9.24,-3.31,0,3,8
2.09,-8.98,-3.35,0,3,8
1.9,-8.88,-3.33,0,3,8
1.97,-9.02,-3.33,0,3,8
1.83,-9.07,-3.14,0,3,8
1.9,-9.22,-3.23,0,3,8
1.85,-9.34,-3.39,0,3,8
2.04,-9.31,-3.18,0,3,8
1.94,-9.14,-3.01,0,3,8
2.03,-9.13,-3.02,0,3,8
1.93,-9.26,-3.16,0,3,8
1.87,-9.29,-3.29,0,3,8
1.84,-9.32,-3.3,0,3,8
1.99,-9.22,-3.14,0,3,8
1.96,-9.23,-3.1,0,3,8
1.88,-9.32,-3.16,0,3,8
1.92,-9.23,-3.19,0,3,8
1.97,-9.19,-2.89,0,3,8
1.95,-9.18,-3.15,0,3,8
1.96,-9.28,-3.12,0,3,8
1.99,-9.29,-3.05,0,3,8
1.97,-9.19,-3.12,0,3,8
2.0,-9.26,-3.1,0,3,8
1.89,-9.21,-3.34,0,3,8
2.02,-9.26,-2.98,0,3,8
2.05,-9.33,-3.02,0,3,8
1.94,-9.21,-3.02,0,3,8
2.07,-9.24,-2.97,0,3,8
2.05,-9.22,-3.05,0,3,8
2.07,-9.24,-3.06,0,3,8
1.97,-9.21,-3.09,0,3,8
2.04,-9.29,-3.14,0,3,8
1.99,-9.24,-3.09,0,3,8
2.03,-9.16,-3.04,0,3,8
2.01,-9.13,-3.11,0,3,8
1.96,-9.35,-3.15,0,3,8
2.06,-9.38,-2.89,0,3,8
1.91,-9.25,-3.04,0,3,8
1.93,-9.2,-3.21,0,3,8
2.02,-9.28,-3.08,0,3,8
2.05,-9.33,-3.02,0,3,8
1.98,-9.28,-3.06,0,3,8
1.85,-9.22,-3.22,0,3,8
1.93,-9.22,-3.13,0,3,8
1.95,-9.23,-3.0,0,3,8
1.92,-9.28,-3.12,0,3,8
1.92,-9.25,-3.07,0,3,8
1.97,-9.27,-3.03,0,3,8
1.98,-9.21,-2.86,0,3,8
2.02,-9.24,-2.95,0,3,8
1.96,-9.19,-3.12,0,3,8
2.03,-9.25,-3.05,0,3,8
1.9,-9.38,-3.08,0,3,8
2.01,-9.3,-3.1,0,3,8
2.07,-9.2,-2.96,0,3,8
2.03,-9.23,-3.02,0,3,8
2.05,-9.3,-3.05,0,3,8
2.07,-9.3,-3.1,0,3,8
2.04,-9.22,-3.18,0,3,8
2.02,-9.24,-2.98,0,3,8
5.85,-11.45,2.27,0,3,9
5.25,-10.52,1.06,0,3,9
5.45,-10.4,2.08,0,3,9
4.24,-10.3,0.36,0,3,9
3.77,-10.08,-0.45,0,3,9
2.46,-9.24,-0.85,0,3,9
2.66,-9.49,-0.63,0,3,9
1.28,-8.62,-0.8,0,3,9
0.82,-8.84,-1.05,0,3,9
1.37,-9.94,-0.69,0,3,9
1.17,-10.08,-2.03,0,3,9
1.53,-9.7,-1.31,0,3,9
1.48,-9.62,-1.11,0,3,9
1.14,-8.77,-1.11,0,3,9
0.88,-9.31,-1.84,0,3,9
0.93,-9.59,-2.04,0,3,9
1.13,-9.71,-2.23,0,3,9
1.14,-9.7,-2.12,0,3,9
1.45,-9.49,-2.01,0,3,9
1.48,-9.38,-2.24,0,3,9
2.05,-10.77,-3.21,0,3,9
3.34,-11.71,-3.52,0,3,9
1.42,-10.88,-4.92,0,3,9
2.12,-8.9,-3.68,0,3,9
2.21,-7.58,-2.61,0,3,9
1.01,-7.31,-3.23,0,3,9
1.78,-8.67,-3.09,0,3,9
2.1,-9.98,-3.71,0,3,9
2.26,-10.09,-4.26,0,3,9
2.15,-9.54,-4.21,0,3,9
2.13,-8.8,-3.66,0,3,9
2.4,-8.52,-3.18,0,3,9
2.4,-8.82,-3.3,0,3,9
2.17,-9.41,-3.63,0,3,9
2.14,-9.51,-3.54,0,3,9
2.25,-9.24,-3.31,0,3,9
2.09,-8.98,-3.35,0,3,9
1.9,-8.88,-3.33,0,3,9
1.97,-9.02,-3.33,0,3,9
1.83,-9.07,-3.14,0,3,9
1.9,-9.22,-3.23,0,3,9
1.85,-9.34,-3.39,0,3,9
2.04,-9.31,-3.18,0,3,9
1.94,-9.14,-3.01,0,3,9
2.03,-9.13,-3.02,0,3,9
1.93,-9.26,-3.16,0,3,9
1.87,-9.29,-3.29,0,3,9
1.84,-9.32,-3.3,0,3,9
1.99,-9.22,-3.14,0,3,9
1.96,-9.23,-3.1,0,3,9
1.88,-9.32,-3.16,0,3,9
1.92,-9.23,-3.19,0,3,9
1.97,-9.19,-2.89,0,3,9
1.95,-9.18,-3.15,0,3,9
1.96,-9.28,-3.12,0,3,9
1.99,-9.29,-3.05,0,3,9
1.97,-9.19,-3.12,0,3,9
2.0,-9.26,-3.1,0,3,9
1.89,-9.21,-3.34,0,3,9
2.02,-9.26,-2.98,0,3,9
2.05,-9.33,-3.02,0,3,9
1.94,-9.21,-3.02,0,3,9
2.07,-9.24,-2.97,0,3,9
2.05,-9.22,-3.05,0,3,9
2.07,-9.24,-3.06,0,3,9
1.97,-9.21,-3.09,0,3,9
2.04,-9.29,-3.14,0,3,9
1.99,-9.24,-3.09,0,3,9
2.03,-9.16,-3.04,0,3,9
2.01,-9.13,-3.11,0,3,9
1.96,-9.35,-3.15,0,3,9
2.06,-9.38,-2.89,0,3,9
1.91,-9.25,-3.04,0,3,9
1.93,-9.2,-3.21,0,3,9
2.02,-9.28,-3.08,0,3,9
2.05,-9.33,-3.02,0,3,9
1.98,-9.28,-3.06,0,3,9
1.85,-9.22,-3.22,0,3,9
1.93,-9.22,-3.13,0,3,9
1.95,-9.23,-3.0,0,3,9
1.92,-9.28,-3.12,0,3,9
1.92,-9.25,-3.07,0,3,9
1.97,-9.27,-3.03,0,3,9
1.98,-9.21,-2.86,0,3,9
2.02,-9.24,-2.95,0,3,9
1.96,-9.19,-3.12,0,3,9
2.03,-9.25,-3.05,0,3,9
1.9,-9.38,-3.08,0,3,9
2.01,-9.3,-3.1,0,3,9
2.07,-9.2,-2.96,0,3,9
2.03,-9.23,-3.02,0,3,9
2.05,-9.3,-3.05,0,3,9
2.07,-9.3,-3.1,0,3,9
2.04,-9.22,-3.18,0,3,9
2.02,-9.24,-2.98,0,3,9
2.01,-9.23,-3.04,0,3,9
1.97,-9.24,-3.07,0,3,9
1.98,-9.3,-2.99,0,3,9
2.0,-9.22,-2.97,0,3,9
1.96,-9.25,-3.02,0,3,9
2.46,-9.24,-0.85,0,3,10
2.66,-9.49,-0.63,0,3,10
1.28,-8.62,-0.8,0,3,10
0.82,-8.84,-1.05,0,3,10
1.37,-9.94,-0.69,0,3,10
1.17,-10.08,-2.03,0,3,10
1.53,-9.7,-1.31,0,3,10
1.48,-9.62,-1.11,0,3,10
1.14,-8.77,-1.11,0,3,10
0.88,-9.31,-1.84,0,3,10
0.93,-9.59,-2.04,0,3,10
1.13,-9.71,-2.23,0,3,10
1.14,-9.7,-2.12,0,3,10
1.45,-9.49,-2.01,0,3,10
1.48,-9.38,-2.24,0,3,10
2.05,-10.77,-3.21,0,3,10
3.34,-11.71,-3.52,0,3,10
1.42,-10.88,-4.92,0,3,10
2.12,-8.9,-3.68,0,3,10
2.21,-7.58,-2.61,0,3,10
1.01,-7.31,-3.23,0,3,10
1.78,-8.67,-3.09,0,3,10
2.1,-9.98,-3.71,0,3,10
2.26,-10.09,-4.26,0,3,10
2.15,-9.54,-4.21,0,3,10
2.13,-8.8,-3.66,0,3,10
2.4,-8.52,-3.18,0,3,10
2.4,-8.82,-3.3,0,3,10
2.17,-9.41,-3.63,0,3,10
2.14,-9.51,-3.54,0,3,10
2.25,-9.24,-3.31,0,3,10
2.09,-8.98,-3.35,0,3,10
1.9,-8.88,-3.33,0,3,10
1.97,-9.02,-3.33,0,3,10
1.83,-9.07,-3.14,0,3,10
1.9,-9.22,-3.23,0,3,10
1.85,-9.34,-3.39,0,3,10
2.04,-9.31,-3.18,0,3,10
1.94,-9.14,-3.01,0,3,10
2.03,-9.13,-3.02,0,3,10
1.93,-9.26,-3.16,0,3,10
1.87,-9.29,-3.29,0,3,10
1.84,-9.32,-3.3,0,3,10
1.99,-9.22,-3.14,0,3,10
1.96,-9.23,-3.1,0,3,10
1.88,-9.32,-3.16,0,3,10
1.92,-9.23,-3.19,0,3,10
1.97,-9.19,-2.89,0,3,10
1.95,-9.18,-3.15,0,3,10
1.96,-9.28,-3.12,0,3,10
1.99,-9.29,-3.05,0,3,10
1.97,-9.19,-3.12,0,3,10
2.0,-9.26,-3.1,0,3,10
1.89,-9.21,-3.34,0,3,10
2.02,-9.26,-2.98,0,3,10
2.05,-9.33,-3.02,0,3,10
1.94,-9.21,-3.02,0,3,10
2.07,-9.24,-2.97,0,3,10
2.05,-9.22,-3.05,0,3,10
2.07,-9.24,-3.06,0,3,10
1.97,-9.21,-3.09,0,3,10
2.04,-9.29,-3.14,0,3,10
1.99,-9.24,-3.09,0,3,10
2.03,-9.16,-3.04,0,3,10
2.01,-9.13,-3.11,0,3,10
1.96,-9.35,-3.15,0,3,10
2.06,-9.38,-2.89,0,3,10
1.91,-9.25,-3.04,0,3,10
1.93,-9.2,-3.21,0,3,10
2.02,-9.28,-3.08,0,3,10
2.05,-9.33,-3.02,0,3,10
1.98,-9.28,-3.06,0,3,10
1.85,-9.22,-3.22,0,3,10
1.93,-9.22,-3.13,0,3,10
1.95,-9.23,-3.0,0,3,10
1.92,-9.28,-3.12,0,3,10
1.92,-9.25,-3.07,0,3,10
1.97,-9.27,-3.03,0,3,10
1.98,-9.21,-2.86,0,3,10
2.02,-9.24,-2.95,0,3,10
1.96,-9.19,-3.12,0,3,10
2.03,-9.25,-3.05,0,3,10
1.9,-9.38,-3.08,0,3,10
2.01,-9.3,-3.1,0,3,10
2.07,-9.2,-2.96,0,3,10
2.03,-9.23,-3.02,0,3,10
2.05,-9.3,-3.05,0,3,10
2.07,-9.3,-3.1,0,3,10
2.04,-9.22,-3.18,0,3,10
2.02,-9.24,-2.98,0,3,10
2.01,-9.23,-3.04,0,3,10
1.97,-9.24,-3.07,0,3,10
1.98,-9.3,-2.99,0,3,10
2.0,-9.22,-2.97,0,3,10
1.96,-9.25,-3.02,0,3,10
1.87,-9.28,-3.15,0,3,10
1.84,-9.13,-3.2,0,3,10
1.89,-9.29,-3.15,0,3,10
2.11,-9.52,-2.99,0,3,10
2.1,-9.49,-2.93,0,3,10
-7.72,0.49,-4.68,1,4,1
-6.22,0.34,-3.94,1,4,1
-7.43,0.51,-3.5,1,4,1
-8.55,2.31,-3.95,1,4,1
-8.76,2.85,-2.85,0,4,1
-6.93,-1.83,-8.97,0,4,1
-8.58,-4.22,-9.27,0,4,1
-8.18,-1.71,-4.83,0,4,1
-7.95,0.85,-3.62,0,4,1
-8.27,1.63,-4.09,0,4,1
-7.85,-0.21,-4.83,0,4,1
-6.0,-2.83,-4.91,0,4,1
-5.5,-3.53,-2.96,0,4,1
-7.39,-3.33,-3.88,0,4,1
-9.0,-2.03,-5.73,0,4,1
-9.37,-0.58,-5.33,0,4,1
-9.82,0.74,-5.33,0,4,1
-9.41,0.41,-4.74,0,4,1
-9.39,-1.15,-4.69,0,4,1
-9.56,-1.56,-5.1,0,4,1
-10.72,-0.23,-5.5,0,4,1
-9.42,1.24,-6.62,0,4,1
-8.76,1.35,-6.01,0,4,1
-7.33,1.3,-2.4,0,4,1
-6.57,-0.12,0.14,0,4,1
-4.39,1.78,5.86,0,4,1
-1.32,5.04,11.32,0,4,1
7.2,-3.02,11.86,0,4,1
10.91,-14.8,-1.02,0,4,1
6.24,-18.92,-2.85,0,4,1
15.75,-19.62,2.08,0,4,1
12.98,-19.62,-6.21,0,4,1
5.24,-19.62,3.09,0,4,1
10.64,-11.21,13.27,0,4,1
8.13,-9.59,19.62,0,4,1
4.4,-10.07,19.62,0,4,1
-0.43,-13.73,19.62,0,4,1
-3.12,-13.21,15.39,0,4,1
-8.67,-1.3,19.13,0,4,1
-13.88,4.83,15.29,0,4,1
-10.43,7.41,12.09,0,4,1
-3.61,1.5,12.17,0,4,1
0.03,-7.1,11.77,0,4,1
-1.93,-9.27,7.86,0,4,1
-4.99,-7.46,4.85,0,4,1
-5.41,-4.2,1.88,0,4,1
-6.18,-0.44,-0.24,0,4,1
-6.07,0.11,0.94,0,4,1
-3.37,-0.99,1.64,0,4,1
-3.1,-3.73,2.77,0,4,1
-3.53,-5.86,2.42,0,4,1
-3.94,-6.96,0.97,0,4,1
-3.58,-6.49,1.23,0,4,1
-3.11,-5.45,2.92,0,4,1
-2.46,-4.31,3.96,0,4,1
-3.61,-4.21,4.64,0,4,1
-4.64,-4.67,4.64,0,4,1
-5.37,-5.69,4.99,0,4,1
-4.38,-6.71,6.09,0,4,1
-3.44,-7.36,7.11,0,4,1
-3.64,-8.12,7.53,0,4,1
-4.18,-7.98,7.25,0,4,1
-5.26,-7.19,7.28,0,4,1
-5.32,-6.98,7.47,0,4,1
-4.38,-7.19,7.54,0,4,1
-3.57,-7.53,8.15,0,4,1
-3.57,-7.02,7.86,0,4,1
-4.53,-6.04,7.04,0,4,1
-4.4,-5.54,6.77,0,4,1
-3.64,-5.65,6.74,0,4,1
-3.31,-5.95,6.33,0,4,1
-3.46,-6.15,6.03,0,4,1
-3.46,-6.2,6.09,0,4,1
-3.4,-6.46,5.82,0,4,1
-3.57,-6.47,5.13,0,4,1
-3.69,-6.25,4.98,0,4,1
-3.57,-6.11,5.45,0,4,1
-3.41,-6.1,5.45,0,4,1
-3.55,-6.56,5.22,0,4,1
-3.54,-7.01,5.27,0,4,1
-3.44,-7.18,5.37,0,4,1
-3.73,-6.98,5.08,0,4,1
-4.06,-6.78,5.12,0,4,1
-3.86,-6.75,5.7,0,4,1
-3.67,-6.79,5.93,0,4,1
-3.7,-7.01,5.91,0,4,1
-3.66,-7.23,5.75,0,4,1
-3.56,-7.29,5.96,0,4,1
-3.65,-7.2,6.13,0,4,1
-3.74,-7.23,5.97,0,4,1
-3.48,-7.34,5.86,0,4,1
-3.41,-7.08,5.85,0,4,1
-3.48,-7.1,5.64,0,4,1
-3.37,-7.11,5.51,0,4,1
-3.33,-7.0,5.45,0,4,1
-3.13,-6.96,5.51,0,4,1
-3.19,-7.02,5.45,0,4,1
-3.27,-6.92,5.34,0,4,1
-3.57,-6.81,5.01,0,4,1
-3.59,-6.78,5.01,0,4,1
-6.93,-1.83,-8.97,0,4,2
-8.58,-4.22,-9.27,0,4,2
-8.18,-1.71,-4.83,0,4,2
-7.95,0.85,-3.62,0,4,2
-8.27,1.63,-4.09,0,4,2
-7.85,-0.21,-4.83,0,4,2
-6.0,-2.83,-4.91,0,4,2
-5.5,-3.53,-2.96,0,4,2
-7.39,-3.33,-3.88,0,4,2
-9.0,-2.03,-5.73,0,4,2
-9.37,-0.58,-5.33,0,4,2
-9.82,0.74,-5.33,0,4,2
-9.41,0.41,-4.74,0,4,2
-9.39,-1.15,-4.69,0,4,2
-9.56,-1.56,-5.1,0,4,2
-10.72,-0.23,-5.5,0,4,2
-9.42,1.24,-6.62,0,4,2
-8.76,1.35,-6.01,0,4,2
-7.33,1.3,-2.4,0,4,2
-6.57,-0.12,0.14,0,4,2
-4.39,1.78,5.86,0,4,2
-1.32,5.04,11.32,0,4,2
7.2,-3.02,11.86,0,4,2
10.91,-14.8,-1.02,0,4,2
6.24,-18.92,-2.85,0,4,2
15.75,-19.62,2.08,0,4,2
12.98,-19.62,-6.21,0,4,2
5.24,-19.62,3.09,0,4,2
10.64,-11.21,13.27,0,4,2
8.13,-9.59,19.62,0,4,2
4.4,-10.07,19.62,0,4,2
-0.43,-13.73,19.62,0,4,2
-3.12,-13.21,15.39,0,4,2
-8.67,-1.3,19.13,0,4,2
-13.88,4.83,15.29,0,4,2
-10.43,7.41,12.09,0,4,2
-3.61,1.5,12.17,0,4,2
0.03,-7.1,11.77,0,4,2
-1.93,-9.27,7.86,0,4,2
-4.99,-7.46,4.85,0,4,2
-5.41,-4.2,1.88,0,4,2
-6.18,-0.44,-0.24,0,4,2
-6.07,0.11,0.94,0,4,2
-3.37,-0.99,1.64,0,4,2
-3.1,-3.73,2.77,0,4,2
-3.53,-5.86,2.42,0,4,2
-3.94,-6.96,0.97,0,4,2
-3.58,-6.49,1.23,0,4,2
-3.11,-5.45,2.92,0,4,2
-2.46,-4.31,3.96,0,4,2
-3.61,-4.21,4.64,0,4,2
-4.64,-4.67,4.64,0,4,2
-5.37,-5.69,4.99,0,4,2
-4.38,-6.71,6.09,0,4,2
-3.44,-7.36,7.11,0,4,2
-3.64,-8.12,7.53,0,4,2
-4.18,-7.98,7.25,0,4,2
-5.26,-7.19,7.28,0,4,2
-5.32,-6.98,7.47,0,4,2
-4.38,-7.19,7.54,0,4,2
-3.57,-7.53,8.15,0,4,2
-3.57,-7.02,7.86,0,4,2
-4.53,-6.04,7.04,0,4,2
-4.4,-5.54,6.77,0,4,2
-3.64,-5.65,6.74,0,4,2
-3.31,-5.95,6.33,0,4,2
-3.46,-6.15,6.03,0,4,2
-3.46,-6.2,6.09,0,4,2
-3.4,-6.46,5.82,0,4,2
-3.57,-6.47,5.13,0,4,2
-3.69,-6.25,4.98,0,4,2
-3.57,-6.11,5.45,0,4,2
-3.41,-6.1,5.45,0,4,2
-3.55,-6.56,5.22,0,4,2
-3.54,-7.01,5.27,0,4,2
-3.44,-7.18,5.37,0,4,2
-3.73,-6.98,5.08,0,4,2
-4.06,-6.78,5.12,0,4,2
-3.86,-6.75,5.7,0,4,2
-3.67,-6.79,5.93,0,4,2
-3.7,-7.01,5.91,0,4,2
-3.66,-7.23,5.75,0,4,2
-3.56,-7.29,5.96,0,4,2
-3.65,-7.2,6.13,0,4,2
-3.74,-7.23,5.97,0,4,2
-3.48,-7.34,5.86,0,4,2
-3.41,-7.08,5.85,0,4,2
-3.48,-7.1,5.64,0,4,2
-3.37,-7.11,5.51,0,4,2
-3.33,-7.0,5.45,0,4,2
-3.13,-6.96,5.51,0,4,2
-3.19,-7.02,5.45,0,4,2
-3.27,-6.92,5.34,0,4,2
-3.57,-6.81,5.01,0,4,2
-3.59,-6.78,5.01,0,4,2
-3.26,-7.06,5.69,0,4,2
-2.83,-7.26,6.1,0,4,2
-2.95,-7.22,5.84,0,4,2
-3.58,-6.71,5.07,0,4,2
-4.05,-6.31,4.88,0,4,2
-7.85,-0.21,-4.83,0,4,3
-6.0,-2.83,-4.91,0,4,3
-5.5,-3.53,-2.96,0,4,3
-7.39,-3.33,-3.88,0,4,3
-9.0,-2.03,-5.73,0,4,3
-9.37,-0.58,-5.33,0,4,3
-9.82,0.74,-5.33,0,4,3
-9.41,0.41,-4.74,0,4,3
-9.39,-1.15,-4.69,0,4,3
-9.56,-1.56,-5.1,0,4,3
-10.72,-0.23,-5.5,0,4,3
-9.42,1.24,-6.62,0,4,3
-8.76,1.35,-6.01,0,4,3
-7.33,1.3,-2.4,0,4,3
-6.57,-0.12,0.14,0,4,3
-4.39,1.78,5.86,0,4,3
-1.32,5.04,11.32,0,4,3
7.2,-3.02,11.86,0,4,3
10.91,-14.8,-1.02,0,4,3
6.24,-18.92,-2.85,0,4,3
15.75,-19.62,2.08,0,4,3
12.98,-19.62,-6.21,0,4,3
5.24,-19.62,3.09,0,4,3
10.64,-11.21,13.27,0,4,3
8.13,-9.59,19.62,0,4,3
4.4,-10.07,19.62,0,4,3
-0.43,-13.73,19.62,0,4,3
-3.12,-13.21,15.39,0,4,3
-8.67,-1.3,19.13,0,4,3
-13.88,4.83,15.29,0,4,3
-10.43,7.41,12.09,0,4,3
-3.61,1.5,12.17,0,4,3
0.03,-7.1,11.77,0,4,3
-1.93,-9.27,7.86,0,4,3
-4.99,-7.46,4.85,0,4,3
-5.41,-4.2,1.88,0,4,3
-6.18,-0.44,-0.24,0,4,3
-6.07,0.11,0.94,0,4,3
-3.37,-0.99,1.64,0,4,3
-3.1,-3.73,2.77,0,4,3
-3.53,-5.86,2.42,0,4,3
-3.94,-6.96,0.97,0,4,3
-3.58,-6.49,1.23,0,4,3
-3.11,-5.45,2.92,0,4,3
-2.46,-4.31,3.96,0,4,3
-3.61,-4.21,4.64,0,4,3
-4.64,-4.67,4.64,0,4,3
-5.37,-5.69,4.99,0,4,3
-4.38,-6.71,6.09,0,4,3
-3.44,-7.36,7.11,0,4,3
-3.64,-8.12,7.53,0,4,3
-4.18,-7.98,7.25,0,4,3
-5.26,-7.19,7.28,0,4,3
-5.32,-6.98,7.47,0,4,3
-4.38,-7.19,7.54,0,4,3
-3.57,-7.53,8.15,0,4,3
-3.57,-7.02,7.86,0,4,3
-4.53,-6.04,7.04,0,4,3
-4.4,-5.54,6.77,0,4,3
-3.64,-5.65,6.74,0,4,3
-3.31,-5.95,6.33,0,4,3
-3.46,-6.15,6.03,0,4,3
-3.46,-6.2,6.09,0,4,3
-3.4,-6.46,5.82,0,4,3
-3.57,-6.47,5.13,0,4,3
-3.69,-6.25,4.98,0,4,3
-3.57,-6.11,5.45,0,4,3
-3.41,-6.1,5.45,0,4,3
-3.55,-6.56,5.22,0,4,3
-3.54,-7.01,5.27,0,4,3
-3.44,-7.18,5.37,0,4,3
-3.73,-6.98,5.08,0,4,3
-4.06,-6.78,5.12,0,4,3
-3.86,-6.75,5.7,0,4,3
-3.67,-6.79,5.93,0,4,3
-3.7,-7.01,5.91,0,4,3
-3.66,-7.23,5.75,0,4,3
-3.56,-7.29,5.96,0,4,3
-3.65,-7.2,6.13,0,4,3
-3.74,-7.23,5.97,0,4,3
-3.48,-7.34,5.86,0,4,3
-3.41,-7.08,5.85,0,4,3
-3.48,-7.1,5.64,0,4,3
-3.37,-7.11,5.51,0,4,3
-3.33,-7.0,5.45,0,4,3
-3.13,-6.96,5.51,0,4,3
-3.19,-7.02,5.45,0,4,3
-3.27,-6.92,5.34,0,4,3
-3.57,-6.81,5.01,0,4,3
-3.59,-6.78,5.01,0,4,3
-3.26,-7.06,5.69,0,4,3
-2.83,-7.26,6.1,0,4,3
-2.95,-7.22,5.84,0,4,3
-3.58,-6.71,5.07,0,4,3
-4.05,-6.31,4.88,0,4,3
-3.88,-6.53,5.19,0,4,3
-3.09,-7.1,5.67,0,4,3
-2.85,-7.44,5.75,0,4,3
-3.03,-7.49,5.92,0,4,3
-3.39,-7.16,5.59,0,4,3
-9.37,-0.58,-5.33,0,4,4
-9.82,0.74,-5.33,0,4,4
-9.41,0.41,-4.74,0,4,4
-9.39,-1.15,-4.69,0,4,4
-9.56,-1.56,-5.1,0,4,4
-10.72,-0.23,-5.5,0,4,4
-9.42,1.24,-6.62,0,4,4
-8.76,1.35,-6.01,0,4,4
-7.33,1.3,-2.4,0,4,4
-6.57,-0.12,0.14,0,4,4
-4.39,1.78,5.86,0,4,4
-1.32,5.04,11.32,0,4,4
7.2,-3.02,11.86,0,4,4
10.91,-14.8,-1.02,0,4,4
6.24,-18.92,-2.85,0,4,4
15.75,-19.62,2.08,0,4,4
12.98,-19.62,-6.21,0,4,4
5.24,-19.62,3.09,0,4,4
10.64,-11.21,13.27,0,4,4
8.13,-9.59,19.62,0,4,4
4.4,-10.07,19.62,0,4,4
-0.43,-13.73,19.62,0,4,4
-3.12,-13.21,15.39,0,4,4
-8.67,-1.3,19.13,0,4,4
-13.88,4.83,15.29,0,4,4
-10.43,7.41,12.09,0,4,4
-3.61,1.5,12.17,0,4,4
0.03,-7.1,11.77,0,4,4
-1.93,-9.27,7.86,0,4,4
-4.99,-7.46,4.85,0,4,4
-5.41,-4.2,1.88,0,4,4
-6.18,-0.44,-0.24,0,4,4
-6.07,0.11,0.94,0,4,4
-3.37,-0.99,1.64,0,4,4
-3.1,-3.73,2.77,0,4,4
-3.53,-5.86,2.42,0,4,4
-3.94,-6.96,0.97,0,4,4
-3.58,-6.49,1.23,0,4,4
-3.11,-5.45,2.92,0,4,4
-2.46,-4.31,3.96,0,4,4
-3.61,-4.21,4.64,0,4,4
-4.64,-4.67,4.64,0,4,4
-5.37,-5.69,4.99,0,4,4
-4.38,-6.71,6.09,0,4,4
-3.44,-7.36,7.11,0,4,4
-3.64,-8.12,7.53,0,4,4
-4.18,-7.98,7.25,0,4,4
-5.26,-7.19,7.28,0,4,4
-5.32,-6.98,7.47,0,4,4
-4.38,-7.19,7.54,0,4,4
-3.57,-7.53,8.15,0,4,4
-3.57,-7.02,7.86,0,4,4
-4.53,-6.04,7.04,0,4,4
-4.4,-5.54,6.77,0,4,4
-3.64,-5.65,6.74,0,4,4
-3.31,-5.95,6.33,0,4,4
-3.46,-6.15,6.03,0,4,4
-3.46,-6.2,6.09,0,4,4
-3.4,-6.46,5.82,0,4,4
-3.57,-6.47,5.13,0,4,4
-3.69,-6.25,4.98,0,4,4
-3.57,-6.11,5.45,0,4,4
-3.41,-6.1,5.45,0,4,4
-3.55,-6.56,5.22,0,4,4
-3.54,-7.01,5.27,0,4,4
-3.44,-7.18,5.37,0,4,4
-3.73,-6.98,5.08,0,4,4
-4.06,-6.78,5.12,0,4,4
-3.86,-6.75,5.7,0,4,4
-3.67,-6.79,5.93,0,4,4
-3.7,-7.01,5.91,0,4,4
-3.66,-7.23,5.75,0,4,4
-3.56,-7.29,5.96,0,4,4
-3.65,-7.2,6.13,0,4,4
-3.74,-7.23,5.97,0,4,4
-3.48,-7.34,5.86,0,4,4
-3.41,-7.08,5.85,0,4,4
-3.48,-7.1,5.64,0,4,4
-3.37,-7.11,5.51,0,4,4
-3.33,-7.0,5.45,0,4,4
-3.13,-6.96,5.51,0,4,4
-3.19,-7.02,5.45,0,4,4
-3.27,-6.92,5.34,0,4,4
-3.57,-6.81,5.01,0,4,4
-3.59,-6.78,5.01,0,4,4
-3.26,-7.06,5.69,0,4,4
-2.83,-7.26,6.1,0,4,4
-2.95,-7.22,5.84,0,4,4
-3.58,-6.71,5.07,0,4,4
-4.05,-6.31,4.88,0,4,4
-3.88,-6.53,5.19,0,4,4
-3.09,-7.1,5.67,0,4,4
-2.85,-7.44,5.75,0,4,4
-3.03,-7.49,5.92,0,4,4
-3.39,-7.16,5.59,0,4,4
-3.53,-6.85,5.19,0,4,4
-3.4,-6.69,5.53,0,4,4
-3.21,-6.79,5.74,0,4,4
-3.42,-7.06,5.84,0,4,4
-3.19,-7.64,5.7,0,4,4
-10.72,-0.23,-5.5,0,4,5
-9.42,1.24,-6.62,0,4,5
-8.76,1.35,-6.01,0,4,5
-7.33,1.3,-2.4,0,4,5
-6.57,-0.12,0.14,0,4,5
-4.39,1.78,5.86,0,4,5
-1.32,5.04,11.32,0,4,5
7.2,-3.02,11.86,0,4,5
10.91,-14.8,-1.02,0,4,5
6.24,-18.92,-2.85,0,4,5
15.75,-19.62,2.08,0,4,5
12.98,-19.62,-6.21,0,4,5
5.24,-19.62,3.09,0,4,5
10.64,-11.21,13.27,0,4,5
8.13,-9.59,19.62,0,4,5
4.4,-10.07,19.62,0,4,5
-0.43,-13.73,19.62,0,4,5
-3.12,-13.21,15.39,0,4,5
-8.67,-1.3,19.13,0,4,5
-13.88,4.83,15.29,0,4,5
-10.43,7.41,12.09,0,4,5
-3.61,1.5,12.17,0,4,5
0.03,-7.1,11.77,0,4,5
-1.93,-9.27,7.86,0,4,5
-4.99,-7.46,4.85,0,4,5
-5.41,-4.2,1.88,0,4,5
-6.18,-0.44,-0.24,0,4,5
-6.07,0.11,0.94,0,4,5
-3.37,-0.99,1.64,0,4,5
-3.1,-3.73,2.77,0,4,5
-3.53,-5.86,2.42,0,4,5
-3.94,-6.96,0.97,0,4,5
-3.58,-6.49,1.23,0,4,5
-3.11,-5.45,2.92,0,4,5
-2.46,-4.31,3.96,0,4,5
-3.61,-4.21,4.64,0,4,5
-4.64,-4.67,4.64,0,4,5
-5.37,-5.69,4.99,0,4,5
-4.38,-6.71,6.09,0,4,5
-3.44,-7.36,7.11,0,4,5
-3.64,-8.12,7.53,0,4,5
-4.18,-7.98,7.25,0,4,5
-5.26,-7.19,7.28,0,4,5
-5.32,-6.98,7.47,0,4,5
-4.38,-7.19,7.54,0,4,5
-3.57,-7.53,8.15,0,4,5
-3.57,-7.02,7.86,0,4,5
-4.53,-6.04,7.04,0,4,5
-4.4,-5.54,6.77,0,4,5
-3.64,-5.65,6.74,0,4,5
-3.31,-5.95,6.33,0,4,5
-3.46,-6.15,6.03,0,4,5
-3.46,-6.2,6.09,0,4,5
-3.4,-6.46,5.82,0,4,5
-3.57,-6.47,5.13,0,4,5
-3.69,-6.25,4.98,0,4,5
-3.57,-6.11,5.45,0,4,5
-3.41,-6.1,5.45,0,4,5
-3.55,-6.56,5.22,0,4,5
-3.54,-7.01,5.27,0,4,5
-3.44,-7.18,5.37,0,4,5
-3.73,-6.98,5.08,0,4,5
-4.06,-6.78,5.12,0,4,5
-3.86,-6.75,5.7,0,4,5
-3.67,-6.79,5.93,0,4,5
-3.7,-7.01,5.91,0,4,5
-3.66,-7.23,5.75,0,4,5
-3.56,-7.29,5.96,0,4,5
-3.65,-7.2,6.13,0,4,5
-3.74,-7.23,5.97,0,4,5
-3.48,-7.34,5.86,0,4,5
-3.41,-7.08,5.85,0,4,5
-3.48,-7.1,5.64,0,4,5
-3.37,-7.11,5.51,0,4,5
-3.33,-7.0,5.45,0,4,5
-3.13,-6.96,5.51,0,4,5
-3.19,-7.02,5.45,0,4,5
-3.27,-6.92,5.34,0,4,5
-3.57,-6.81,5.01,0,4,5
-3.59,-6.78,5.01,0,4,5
-3.26,-7.06,5.69,0,4,5
-2.83,-7.26,6.1,0,4,5
-2.95,-7.22,5.84,0,4,5
-3.58,-6.71,5.07,0,4,5
-4.05,-6.31,4.88,0,4,5
-3.88,-6.53,5.19,0,4,5
-3.09,-7.1,5.67,0,4,5
-2.85,-7.44,5.75,0,4,5
-3.03,-7.49,5.92,0,4,5
-3.39,-7.16,5.59,0,4,5
-3.53,-6.85,5.19,0,4,5
-3.4,-6.69,5.53,0,4,5
-3.21,-6.79,5.74,0,4,5
-3.42,-7.06,5.84,0,4,5
-3.19,-7.64,5.7,0,4,5
-3.42,-7.44,5.43,0,4,5
-3.77,-6.6,5.33,0,4,5
-4.0,-5.92,5.59,0,4,5
-3.82,-6.05,6.0,0,4,5
-3.29,-6.54,6.32,0,4,5
-4.39,1.78,5.86,0,4,6
-1.32,5.04,11.32,0,4,6
7.2,-3.02,11.86,0,4,6
10.91,-14.8,-1.02,0,4,6
6.24,-18.92,-2.85,0,4,6
15.75,-19.62,2.08,0,4,6
12.98,-19.62,-6.21,0,4,6
5.24,-19.62,3.09,0,4,6
10.64,-11.21,13.27,0,4,6
8.13,-9.59,19.62,0,4,6
4.4,-10.07,19.62,0,4,6
-0.43,-13.73,19.62,0,4,6
-3.12,-13.21,15.39,0,4,6
-8.67,-1.3,19.13,0,4,6
-13.88,4.83,15.29,0,4,6
-10.43,7.41,12.09,0,4,6
-3.61,1.5,12.17,0,4,6
0.03,-7.1,11.77,0,4,6
-1.93,-9.27,7.86,0,4,6
-4.99,-7.46,4.85,0,4,6
-5.41,-4.2,1.88,0,4,6
-6.18,-0.44,-0.24,0,4,6
-6.07,0.11,0.94,0,4,6
-3.37,-0.99,1.64,0,4,6
-3.1,-3.73,2.77,0,4,6
-3.53,-5.86,2.42,0,4,6
-3.94,-6.96,0.97,0,4,6
-3.58,-6.49,1.23,0,4,6
-3.11,-5.45,2.92,0,4,6
-2.46,-4.31,3.96,0,4,6
-3.61,-4.21,4.64,0,4,6
-4.64,-4.67,4.64,0,4,6
-5.37,-5.69,4.99,0,4,6
-4.38,-6.71,6.09,0,4,6
-3.44,-7.36,7.11,0,4,6
-3.64,-8.12,7.53,0,4,6
-4.18,-7.98,7.25,0,4,6
-5.26,-7.19,7.28,0,4,6
-5.32,-6.98,7.47,0,4,6
-4.38,-7.19,7.54,0,4,6
-3.57,-7.53,8.15,0,4,6
-3.57,-7.02,7.86,0,4,6
-4.53,-6.04,7.04,0,4,6
-4.4,-5.54,6.77,0,4,6
-3.64,-5.65,6.74,0,4,6
-3.31,-5.95,6.33,0,4,6
-3.46,-6.15,6.03,0,4,6
-3.46,-6.2,6.09,0,4,6
-3.4,-6.46,5.82,0,4,6
-3.57,-6.47,5.13,0,4,6
-3.69,-6.25,4.98,0,4,6
-3.57,-6.11,5.45,0,4,6
-3.41,-6.1,5.45,0,4,6
-3.55,-6.56,5.22,0,4,6
-3.54,-7.01,5.27,0,4,6
-3.44,-7.18,5.37,0,4,6
-3.73,-6.98,5.08,0,4,6
-4.06,-6.78,5.12,0,4,6
-3.86,-6.75,5.7,0,4,6
-3.67,-6.79,5.93,0,4,6
-3.7,-7.01,5.91,0,4,6
-3.66,-7.23,5.75,0,4,6
-3.56,-7.29,5.96,0,4,6
-3.65,-7.2,6.13,0,4,6
-3.74,-7.23,5.97,0,4,6
-3.48,-7.34,5.86,0,4,6
-3.41,-7.08,5.85,0,4,6
-3.48,-7.1,5.64,0,4,6
-3.37,-7.11,5.51,0,4,6
-3.33,-7.0,5.45,0,4,6
-3.13,-6.96,5.51,0,4,6
-3.19,-7.02,5.45,0,4,6
-3.27,-6.92,5.34,0,4,6
-3.57,-6.81,5.01,0,4,6
-3.59,-6.78,5.01,0,4,6
-3.26,-7.06,5.69,0,4,6
-2.83,-7.26,6.1,0,4,6
-2.95,-7.22,5.84,0,4,6
-3.58,-6.71,5.07,0,4,6
-4.05,-6.31,4.88,0,4,6
-3.88,-6.53,5.19,0,4,6
-3.09,-7.1,5.67,0,4,6
-2.85,-7.44,5.75,0,4,6
-3.03,-7.49,5.92,0,4,6
-3.39,-7.16,5.59,0,4,6
-3.53,-6.85,5.19,0,4,6
-3.4,-6.69,5.53,0,4,6
-3.21,-6.79,5.74,0,4,6
-3.42,-7.06,5.84,0,4,6
-3.19,-7.64,5.7,0,4,6
-3.42,-7.44,5.43,0,4,6
-3.77,-6.6,5.33,0,4,6
-4.0,-5.92,5.59,0,4,6
-3.82,-6.05,6.0,0,4,6
-3.29,-6.54,6.32,0,4,6
-3.15,-6.54,6.76,0,4,6
-3.65,-6.96,6.56,0,4,6
-4.09,-6.7,6.04,0,4,6
-4.22,-5.15,5.49,0,4,6
-4.18,-5.4,6.18,0,4,6
15.75,-19.62,2.08,0,4,7
12.98,-19.62,-6.21,0,4,7
5.24,-19.62,3.09,0,4,7
10.64,-11.21,13.27,0,4,7
8.13,-9.59,19.62,0,4,7
4.4,-10.07,19.62,0,4,7
-0.43,-13.73,19.62,0,4,7
-3.12,-13.21,15.39,0,4,7
-8.67,-1.3,19.13,0,4,7
-13.88,4.83,15.29,0,4,7
-10.43,7.41,12.09,0,4,7
-3.61,1.5,12.17,0,4,7
0.03,-7.1,11.77,0,4,7
-1.93,-9.27,7.86,0,4,7
-4.99,-7.46,4.85,0,4,7
-5.41,-4.2,1.88,0,4,7
-6.18,-0.44,-0.24,0,4,7
-6.07,0.11,0.94,0,4,7
-3.37,-0.99,1.64,0,4,7
-3.1,-3.73,2.77,0,4,7
-3.53,-5.86,2.42,0,4,7
-3.94,-6.96,0.97,0,4,7
-3.58,-6.49,1.23,0,4,7
-3.11,-5.45,2.92,0,4,7
-2.46,-4.31,3.96,0,4,7
-3.61,-4.21,4.64,0,4,7
-4.64,-4.67,4.64,0,4,7
-5.37,-5.69,4.99,0,4,7
-4.38,-6.71,6.09,0,4,7
-3.44,-7.36,7.11,0,4,7
-3.64,-8.12,7.53,0,4,7
-4.18,-7.98,7.25,0,4,7
-5.26,-7.19,7.28,0,4,7
-5.32,-6.98,7.47,0,4,7
-4.38,-7.19,7.54,0,4,7
-3.57,-7.53,8.15,0,4,7
-3.57,-7.02,7.86,0,4,7
-4.53,-6.04,7.04,0,4,7
-4.4,-5.54,6.77,0,4,7
-3.64,-5.65,6.74,0,4,7
-3.31,-5.95,6.33,0,4,7
-3.46,-6.15,6.03,0,4,7
-3.46,-6.2,6.09,0,4,7
-3.4,-6.46,5.82,0,4,7
-3.57,-6.47,5.13,0,4,7
-3.69,-6.25,4.98,0,4,7
-3.57,-6.11,5.45,0,4,7
-3.41,-6.1,5.45,0,4,7
-3.55,-6.56,5.22,0,4,7
-3.54,-7.01,5.27,0,4,7
-3.44,-7.18,5.37,0,4,7
-3.73,-6.98,5.08,0,4,7
-4.06,-6.78,5.12,0,4,7
-3.86,-6.75,5.7,0,4,7
-3.67,-6.79,5.93,0,4,7
-3.7,-7.01,5.91,0,4,7
-3.66,-7.23,5.75,0,4,7
-3.56,-7.29,5.96,0,4,7
-3.65,-7.2,6.13,0,4,7
-3.74,-7.23,5.97,0,4,7
-3.48,-7.34,5.86,0,4,7
-3.41,-7.08,5.85,0,4,7
-3.48,-7.1,5.64,0,4,7
-3.37,-7.11,5.51,0,4,7
-3.33,-7.0,5.45,0,4,7
-3.13,-6.96,5.51,0,4,7
-3.19,-7.02,5.45,0,4,7
-3.27,-6.92,5.34,0,4,7
-3.57,-6.81,5.01,0,4,7
-3.59,-6.78,5.01,0,4,7
-3.26,-7.06,5.69,0,4,7
-2.83,-7.26,6.1,0,4,7
-2.95,-7.22,5.84,0,4,7
-3.58,-6.71,5.07,0,4,7
-4.05,-6.31,4.88,0,4,7
-3.88,-6.53,5.19,0,4,7
-3.09,-7.1,5.67,0,4,7
-2.85,-7.44,5.75,0,4,7
-3.03,-7.49,5.92,0,4,7
-3.39,-7.16,5.59,0,4,7
-3.53,-6.85,5.19,0,4,7
-3.4,-6.69,5.53,0,4,7
-3.21,-6.79,5.74,0,4,7
-3.42,-7.06,5.84,0,4,7
-3.19,-7.64,5.7,0,4,7
-3.42,-7.44,5.43,0,4,7
-3.77,-6.6,5.33,0,4,7
-4.0,-5.92,5.59,0,4,7
-3.82,-6.05,6.0,0,4,7
-3.29,-6.54,6.32,0,4,7
-3.15,-6.54,6.76,0,4,7
-3.65,-6.96,6.56,0,4,7
-4.09,-6.7,6.04,0,4,7
-4.22,-5.15,5.49,0,4,7
-4.18,-5.4,6.18,0,4,7
-3.17,-7.28,6.21,0,4,7
-1.26,-7.75,5.73,0,4,7
0.11,-7.49,4.78,0,4,7
-0.01,-7.48,3.81,0,4,7
-0.23,-8.16,2.7,0,4,7
4.4,-10.07,19.62,0,4,8
-0.43,-13.73,19.62,0,4,8
-3.12,-13.21,15.39,0,4,8
-8.67,-1.3,19.13,0,4,8
-13.88,4.83,15.29,0,4,8
-10.43,7.41,12.09,0,4,8
-3.61,1.5,12.17,0,4,8
0.03,-7.1,11.77,0,4,8
-1.93,-9.27,7.86,0,4,8
-4.99,-7.46,4.85,0,4,8
-5.41,-4.2,1.88,0,4,8
-6.18,-0.44,-0.24,0,4,8
-6.07,0.11,0.94,0,4,8
-3.37,-0.99,1.64,0,4,8
-3.1,-3.73,2.77,0,4,8
-3.53,-5.86,2.42,0,4,8
-3.94,-6.96,0.97,0,4,8
-3.58,-6.49,1.23,0,4,8
-3.11,-5.45,2.92,0,4,8
-2.46,-4.31,3.96,0,4,8
-3.61,-4.21,4.64,0,4,8
-4.64,-4.67,4.64,0,4,8
-5.37,-5.69,4.99,0,4,8
-4.38,-6.71,6.09,0,4,8
-3.44,-7.36,7.11,0,4,8
-3.64,-8.12,7.53,0,4,8
-4.18,-7.98,7.25,0,4,8
-5.26,-7.19,7.28,0,4,8
-5.32,-6.98,7.47,0,4,8
-4.38,-7.19,7.54,0,4,8
-3.57,-7.53,8.15,0,4,8
-3.57,-7.02,7.86,0,4,8
-4.53,-6.04,7.04,0,4,8
-4.4,-5.54,6.77,0,4,8
-3.64,-5.65,6.74,0,4,8
-3.31,-5.95,6.33,0,4,8
-3.46,-6.15,6.03,0,4,8
-3.46,-6.2,6.09,0,4,8
-3.4,-6.46,5.82,0,4,8
-3.57,-6.47,5.13,0,4,8
-3.69,-6.25,4.98,0,4,8
-3.57,-6.11,5.45,0,4,8
-3.41,-6.1,5.45,0,4,8
-3.55,-6.56,5.22,0,4,8
-3.54,-7.01,5.27,0,4,8
-3.44,-7.18,5.37,0,4,8
-3.73,-6.98,5.08,0,4,8
-4.06,-6.78,5.12,0,4,8
-3.86,-6.75,5.7,0,4,8
-3.67,-6.79,5.93,0,4,8
-3.7,-7.01,5.91,0,4,8
-3.66,-7.23,5.75,0,4,8
-3.56,-7.29,5.96,0,4,8
-3.65,-7.2,6.13,0,4,8
-3.74,-7.23,5.97,0,4,8
-3.48,-7.34,5.86,0,4,8
-3.41,-7.08,5.85,0,4,8
-3.48,-7.1,5.64,0,4,8
-3.37,-7.11,5.51,0,4,8
-3.33,-7.0,5.45,0,4,8
-3.13,-6.96,5.51,0,4,8
-3.19,-7.02,5.45,0,4,8
-3.27,-6.92,5.34,0,4,8
-3.57,-6.81,5.01,0,4,8
-3.59,-6.78,5.01,0,4,8
-3.26,-7.06,5.69,0,4,8
-2.83,-7.26,6.1,0,4,8
-2.95,-7.22,5.84,0,4,8
-3.58,-6.71,5.07,0,4,8
-4.05,-6.31,4.88,0,4,8
-3.88,-6.53,5.19,0,4,8
-3.09,-7.1,5.67,0,4,8
-2.85,-7.44,5.75,0,4,8
-3.03,-7.49,5.92,0,4,8
-3.39,-7.16,5.59,0,4,8
-3.53,-6.85,5.19,0,4,8
-3.4,-6.69,5.53,0,4,8
-3.21,-6.79,5.74,0,4,8
-3.42,-7.06,5.84,0,4,8
-3.19,-7.64,5.7,0,4,8
-3.42,-7.44,5.43,0,4,8
-3.77,-6.6,5.33,0,4,8
-4.0,-5.92,5.59,0,4,8
-3.82,-6.05,6.0,0,4,8
-3.29,-6.54,6.32,0,4,8
-3.15,-6.54,6.76,0,4,8
-3.65,-6.96,6.56,0,4,8
-4.09,-6.7,6.04,0,4,8
-4.22,-5.15,5.49,0,4,8
-4.18,-5.4,6.18,0,4,8
-3.17,-7.28,6.21,0,4,8
-1.26,-7.75,5.73,0,4,8
0.11,-7.49,4.78,0,4,8
-0.01,-7.48,3.81,0,4,8
-0.23,-8.16,2.7,0,4,8
0.34,-10.72,1.91,0,4,8
2.06,-12.44,1.46,0,4,8
2.96,-13.04,3.17,0,4,8
3.32,-13.5,2.57,0,4,8
0.89,-12.42,-0.37,0,4,8
-10.43,7.41,12.09,0,4,9
-3.61,1.5,12.17,0,4,9
0.03,-7.1,11.77,0,4,9
-1.93,-9.27,7.86,0,4,9
-4.99,-7.46,4.85,0,4,9
-5.41,-4.2,1.88,0,4,9
-6.18,-0.44,-0.24,0,4,9
-6.07,0.11,0.94,0,4,9
-3.37,-0.99,1.64,0,4,9
-3.1,-3.73,2.77,0,4,9
-3.53,-5.86,2.42,0,4,9
-3.94,-6.96,0.97,0,4,9
-3.58,-6.49,1.23,0,4,9
-3.11,-5.45,2.92,0,4,9
-2.46,-4.31,3.96,0,4,9
-3.61,-4.21,4.64,0,4,9
-4.64,-4.67,4.64,0,4,9
-5.37,-5.69,4.99,0,4,9
-4.38,-6.71,6.09,0,4,9
-3.44,-7.36,7.11,0,4,9
-3.64,-8.12,7.53,0,4,9
-4.18,-7.98,7.25,0,4,9
-5.26,-7.19,7.28,0,4,9
-5.32,-6.98,7.47,0,4,9
-4.38,-7.19,7.54,0,4,9
-3.57,-7.53,8.15,0,4,9
-3.57,-7.02,7.86,0,4,9
-4.53,-6.04,7.04,0,4,9
-4.4,-5.54,6.77,0,4,9
-3.64,-5.65,6.74,0,4,9
-3.31,-5.95,6.33,0,4,9
-3.46,-6.15,6.03,0,4,9
-3.46,-6.2,6.09,0,4,9
-3.4,-6.46,5.82,0,4,9
-3.57,-6.47,5.13,0,4,9
-3.69,-6.25,4.98,0,4,9
-3.57,-6.11,5.45,0,4,9
-3.41,-6.1,5.45,0,4,9
-3.55,-6.56,5.22,0,4,9
-3.54,-7.01,5.27,0,4,9
-3.44,-7.18,5.37,0,4,9
-3.73,-6.98,5.08,0,4,9
-4.06,-6.78,5.12,0,4,9
-3.86,-6.75,5.7,0,4,9
-3.67,-6.79,5.93,0,4,9
-3.7,-7.01,5.91,0,4,9
-3.66,-7.23,5.75,0,4,9
-3.56,-7.29,5.96,0,4,9
-3.65,-7.2,6.13,0,4,9
-3.74,-7.23,5.97,0,4,9
-3.48,-7.34,5.86,0,4,9
-3.41,-7.08,5.85,0,4,9
-3.48,-7.1,5.64,0,4,9
-3.37,-7.11,5.51,0,4,9
-3.33,-7.0,5.45,0,4,9
-3.13,-6.96,5.51,0,4,9
-3.19,-7.02,5.45,0,4,9
-3.27,-6.92,5.34,0,4,9
-3.57,-6.81,5.01,0,4,9
-3.59,-6.78,5.01,0,4,9
-3.26,-7.06,5.69,0,4,9
-2.83,-7.26,6.1,0,4,9
-2.95,-7.22,5.84,0,4,9
-3.58,-6.71,5.07,0,4,9
-4.05,-6.31,4.88,0,4,9
-3.88,-6.53,5.19,0,4,9
-3.09,-7.1,5.67,0,4,9
-2.85,-7.44,5.75,0,4,9
-3.03,-7.49,5.92,0,4,9
-3.39,-7.16,5.59,0,4,9
-3.53,-6.85,5.19,0,4,9
-3.4,-6.69,5.53,0,4,9
-3.21,-6.79,5.74,0,4,9
-3.42,-7.06,5.84,0,4,9
-3.19,-7.64,5.7,0,4,9
-3.42,-7.44,5.43,0,4,9
-3.77,-6.6,5.33,0,4,9
-4.0,-5.92,5.59,0,4,9
-3.82,-6.05,6.0,0,4,9
-3.29,-6.54,6.32,0,4,9
-3.15,-6.54,6.76,0,4,9
-3.65,-6.96,6.56,0,4,9
-4.09,-6.7,6.04,0,4,9
-4.22,-5.15,5.49,0,4,9
-4.18,-5.4,6.18,0,4,9
-3.17,-7.28,6.21,0,4,9
-1.26,-7.75,5.73,0,4,9
0.11,-7.49,4.78,0,4,9
-0.01,-7.48,3.81,0,4,9
-0.23,-8.16,2.7,0,4,9
0.34,-10.72,1.91,0,4,9
2.06,-12.44,1.46,0,4,9
2.96,-13.04,3.17,0,4,9
3.32,-13.5,2.57,0,4,9
0.89,-12.42,-0.37,0,4,9
-1.42,-10.35,-1.4,0,4,9
-1.19,-8.56,-0.46,0,4,9
-0.46,-8.55,1.06,0,4,9
0.39,-8.83,0.35,0,4,9
0.47,-9.81,-0.55,0,4,9
-5.41,-4.2,1.88,0,4,10
-6.18,-0.44,-0.24,0,4,10
-6.07,0.11,0.94,0,4,10
-3.37,-0.99,1.64,0,4,10
-3.1,-3.73,2.77,0,4,10
-3.53,-5.86,2.42,0,4,10
-3.94,-6.96,0.97,0,4,10
-3.58,-6.49,1.23,0,4,10
-3.11,-5.45,2.92,0,4,10
-2.46,-4.31,3.96,0,4,10
-3.61,-4.21,4.64,0,4,10
-4.64,-4.67,4.64,0,4,10
-5.37,-5.69,4.99,0,4,10
-4.38,-6.71,6.09,0,4,10
-3.44,-7.36,7.11,0,4,10
-3.64,-8.12,7.53,0,4,10
-4.18,-7.98,7.25,0,4,10
-5.26,-7.19,7.28,0,4,10
-5.32,-6.98,7.47,0,4,10
-4.38,-7.19,7.54,0,4,10
-3.57,-7.53,8.15,0,4,10
-3.57,-7.02,7.86,0,4,10
-4.53,-6.04,7.04,0,4,10
-4.4,-5.54,6.77,0,4,10
-3.64,-5.65,6.74,0,4,10
-3.31,-5.95,6.33,0,4,10
-3.46,-6.15,6.03,0,4,10
-3.46,-6.2,6.09,0,4,10
-3.4,-6.46,5.82,0,4,10
-3.57,-6.47,5.13,0,4,10
-3.69,-6.25,4.98,0,4,10
-3.57,-6.11,5.45,0,4,10
-3.41,-6.1,5.45,0,4,10
-3.55,-6.56,5.22,0,4,10
-3.54,-7.01,5.27,0,4,10
-3.44,-7.18,5.37,0,4,10
-3.73,-6.98,5.08,0,4,10
-4.06,-6.78,5.12,0,4,10
-3.86,-6.75,5.7,0,4,10
-3.67,-6.79,5.93,0,4,10
-3.7,-7.01,5.91,0,4,10
-3.66,-7.23,5.75,0,4,10
-3.56,-7.29,5.96,0,4,10
-3.65,-7.2,6.13,0,4,10
-3.74,-7.23,5.97,0,4,10
-3.48,-7.34,5.86,0,4,10
-3.41,-7.08,5.85,0,4,10
-3.48,-7.1,5.64,0,4,10
-3.37,-7.11,5.51,0,4,10
-3.33,-7.0,5.45,0,4,10
-3.13,-6.96,5.51,0,4,10
-3.19,-7.02,5.45,0,4,10
-3.27,-6.92,5.34,0,4,10
-3.57,-6.81,5.01,0,4,10
-3.59,-6.78,5.01,0,4,10
-3.26,-7.06,5.69,0,4,10
-2.83,-7.26,6.1,0,4,10
-2.95,-7.22,5.84,0,4,10
-3.58,-6.71,5.07,0,4,10
-4.05,-6.31,4.88,0,4,10
-3.88,-6.53,5.19,0,4,10
-3.09,-7.1,5.67,0,4,10
-2.85,-7.44,5.75,0,4,10
-3.03,-7.49,5.92,0,4,10
-3.39,-7.16,5.59,0,4,10
-3.53,-6.85,5.19,0,4,10
-3.4,-6.69,5.53,0,4,10
-3.21,-6.79,5.74,0,4,10
-3.42,-7.06,5.84,0,4,10
-3.19,-7.64,5.7,0,4,10
-3.42,-7.44,5.43,0,4,10
-3.77,-6.6,5.33,0,4,10
-4.0,-5.92,5.59,0,4,10
-3.82,-6.05,6.0,0,4,10
-3.29,-6.54,6.32,0,4,10
-3.15,-6.54,6.76,0,4,10
-3.65,-6.96,6.56,0,4,10
-4.09,-6.7,6.04,0,4,10
-4.22,-5.15,5.49,0,4,10
-4.18,-5.4,6.18,0,4,10
-3.17,-7.28,6.21,0,4,10
-1.26,-7.75,5.73,0,4,10
0.11,-7.49,4.78,0,4,10
-0.01,-7.48,3.81,0,4,10
-0.23,-8.16,2.7,0,4,10
0.34,-10.72,1.91,0,4,10
2.06,-12.44,1.46,0,4,10
2.96,-13.04,3.17,0,4,10
3.32,-13.5,2.57,0,4,10
0.89,-12.42,-0.37,0,4,10
-1.42,-10.35,-1.4,0,4,10
-1.19,-8.56,-0.46,0,4,10
-0.46,-8.55,1.06,0,4,10
0.39,-8.83,0.35,0,4,10
0.47,-9.81,-0.55,0,4,10
1.14,-10.95,-1.81,0,4,10
0.79,-10.65,-2.69,0,4,10
0.43,-10.87,-2.96,0,4,10
0.76,-11.64,-3.43,0,4,10
1.71,-12.07,-3.19,0,4,10
-6.63,-1.74,-5.42,1,5,1
-6.28,-0.95,-4.73,1,5,1
-6.98,-0.8,-5.35,1,5,1
-6.49,-1.32,-5.32,1,5,1
-6.07,-2.01,-4.46,1,5,1
-7.85,-1.09,-4.78,1,5,1
-7.28,-1.71,-7.53,0,5,1
-7.34,-5.04,-9.33,0,5,1
-6.47,-4.29,-7.04,0,5,1
-6.35,-2.56,-5.87,0,5,1
-6.88,-0.67,-4.77,0,5,1
-6.17,-0.67,-4.2,0,5,1
-4.88,-2.55,-4.21,0,5,1
-4.32,-3.87,-4.32,0,5,1
-5.68,-3.75,-5.27,0,5,1
-6.63,-2.62,-5.6,0,5,1
-6.74,-2.11,-5.22,0,5,1
-6.44,-1.75,-4.49,0,5,1
-7.59,-1.41,-5.13,0,5,1
-8.33,-0.81,-6.05,0,5,1
-8.92,-1.07,-6.4,0,5,1
-8.12,-0.78,-5.27,0,5,1
-8.54,-1.19,-5.38,0,5,1
-9.39,-0.86,-5.59,0,5,1
-8.49,-0.59,-4.8,0,5,1
-6.46,-1.07,-3.95,0,5,1
-6.62,-1.71,-4.61,0,5,1
-7.13,-0.59,-5.84,0,5,1
-4.66,-0.72,-3.14,0,5,1
-3.93,-0.91,-2.79,0,5,1
-3.36,-0.64,-2.11,0,5,1
-3.2,-1.85,-4.49,0,5,1
-2.67,-1.59,-7.42,0,5,1
0.97,-3.46,-8.16,0,5,1
6.66,-10.69,-9.86,0,5,1
10.78,-15.87,-6.63,0,5,1
16.04,-16.72,-2.66,0,5,1
8.24,-11.43,-8.39,0,5,1
2.87,-12.34,-9.57,0,5,1
7.71,-13.8,-7.86,0,5,1
7.23,-10.75,-6.93,0,5,1
8.12,-8.01,-1.42,0,5,1
7.11,-8.13,-2.46,0,5,1
12.71,-14.57,-6.43,0,5,1
15.61,-19.58,-4.4,0,5,1
15.13,-14.39,-3.84,0,5,1
6.84,-10.33,-3.8,0,5,1
11.52,-12.07,-3.65,0,5,1
11.17,-9.2,-2.51,0,5,1
11.24,-7.0,2.08,0,5,1
10.01,-6.62,0.28,0,5,1
2.04,-8.76,-8.08,0,5,1
2.78,-9.78,-6.5,0,5,1
5.07,-9.33,-4.45,0,5,1
6.54,-8.14,0.27,0,5,1
2.28,-8.11,-3.45,0,5,1
0.4,-7.32,-3.33,0,5,1
0.86,-7.22,-4.34,0,5,1
2.3,-7.09,-3.81,0,5,1
3.54,-8.67,-2.42,0,5,1
3.53,-10.67,-4.37,0,5,1
3.22,-9.76,-5.58,0,5,1
2.2,-7.59,-5.01,0,5,1
2.79,-7.43,-3.63,0,5,1
3.75,-7.83,-4.36,0,5,1
4.7,-8.44,-3.49,0,5,1
5.42,-8.73,-3.21,0,5,1
4.2,-8.31,-4.82,0,5,1
4.21,-7.45,-3.5,0,5,1
4.28,-7.02,-2.55,0,5,1
4.38,-7.74,-3.5,0,5,1
4.62,-8.56,-4.43,0,5,1
5.38,-7.92,-2.63,0,5,1
4.62,-7.81,-2.59,0,5,1
4.54,-8.89,-3.47,0,5,1
4.69,-8.96,-3.74,0,5,1
4.45,-8.01,-3.03,0,5,1
4.33,-7.7,-2.76,0,5,1
4.49,-8.41,-3.3,0,5,1
4.0,-8.68,-3.72,0,5,1
4.05,-7.97,-2.8,0,5,1
4.08,-7.87,-2.69,0,5,1
4.43,-8.5,-3.77,0,5,1
4.13,-8.88,-3.89,0,5,1
4.6,-8.39,-3.2,0,5,1
4.45,-8.55,-3.02,0,5,1
4.19,-8.81,-4.07,0,5,1
3.92,-8.69,-4.0,0,5,1
4.31,-8.27,-3.27,0,5,1
4.45,-8.7,-3.01,0,5,1
3.96,-8.97,-4.64,0,5,1
3.96,-8.35,-3.83,0,5,1
4.3,-7.84,-2.88,0,5,1
4.33,-8.28,-3.36,0,5,1
3.81,-8.49,-4.45,0,5,1
4.3,-8.1,-3.26,0,5,1
4.58,-8.16,-2.93,0,5,1
4.69,-8.7,-3.82,0,5,1
4.62,-8.74,-3.86,0,5,1
4.6,-8.58,-3.86,0,5,1
-7.85,-1.09,-4.78,1,5,2
-7.28,-1.71,-7.53,0,5,2
-7.34,-5.04,-9.33,0,5,2
-6.47,-4.29,-7.04,0,5,2
-6.35,-2.56,-5.87,0,5,2
-6.88,-0.67,-4.77,0,5,2
-6.17,-0.67,-4.2,0,5,2
-4.88,-2.55,-4.21,0,5,2
-4.32,-3.87,-4.32,0,5,2
-5.68,-3.75,-5.27,0,5,2
-6.63,-2.62,-5.6,0,5,2
-6.74,-2.11,-5.22,0,5,2
-6.44,-1.75,-4.49,0,5,2
-7.59,-1.41,-5.13,0,5,2
-8.33,-0.81,-6.05,0,5,2
-8.92,-1.07,-6.4,0,5,2
-8.12,-0.78,-5.27,0,5,2
-8.54,-1.19,-5.38,0,5,2
-9.39,-0.86,-5.59,0,5,2
-8.49,-0.59,-4.8,0,5,2
-6.46,-1.07,-3.95,0,5,2
-6.62,-1.71,-4.61,0,5,2
-7.13,-0.59,-5.84,0,5,2
-4.66,-0.72,-3.14,0,5,2
-3.93,-0.91,-2.79,0,5,2
-3.36,-0.64,-2.11,0,5,2
-3.2,-1.85,-4.49,0,5,2
-2.67,-1.59,-7.42,0,5,2
0.97,-3.46,-8.16,0,5,2
6.66,-10.69,-9.86,0,5,2
10.78,-15.87,-6.63,0,5,2
16.04,-16.72,-2.66,0,5,2
8.24,-11.43,-8.39,0,5,2
2.87,-12.34,-9.57,0,5,2
7.71,-13.8,-7.86,0,5,2
7.23,-10.75,-6.93,0,5,2
8.12,-8.01,-1.42,0,5,2
7.11,-8.13,-2.46,0,5,2
12.71,-14.57,-6.43,0,5,2
15.61,-19.58,-4.4,0,5,2
15.13,-14.39,-3.84,0,5,2
6.84,-10.33,-3.8,0,5,2
11.52,-12.07,-3.65,0,5,2
11.17,-9.2,-2.51,0,5,2
11.24,-7.0,2.08,0,5,2
10.01,-6.62,0.28,0,5,2
2.04,-8.76,-8.08,0,5,2
2.78,-9.78,-6.5,0,5,2
5.07,-9.33,-4.45,0,5,2
6.54,-8.14,0.27,0,5,2
2.28,-8.11,-3.45,0,5,2
0.4,-7.32,-3.33,0,5,2
0.86,-7.22,-4.34,0,5,2
2.3,-7.09,-3.81,0,5,2
3.54,-8.67,-2.42,0,5,2
3.53,-10.67,-4.37,0,5,2
3.22,-9.76,-5.58,0,5,2
2.2,-7.59,-5.01,0,5,2
2.79,-7.43,-3.63,0,5,2
3.75,-7.83,-4.36,0,5,2
4.7,-8.44,-3.49,0,5,2
5.42,-8.73,-3.21,0,5,2
4.2,-8.31,-4.82,0,5,2
4.21,-7.45,-3.5,0,5,2
4.28,-7.02,-2.55,0,5,2
4.38,-7.74,-3.5,0,5,2
4.62,-8.56,-4.43,0,5,2
5.38,-7.92,-2.63,0,5,2
4.62,-7.81,-2.59,0,5,2
4.54,-8.89,-3.47,0,5,2
4.69,-8.96,-3.74,0,5,2
4.45,-8.01,-3.03,0,5,2
4.33,-7.7,-2.76,0,5,2
4.49,-8.41,-3.3,0,5,2
4.0,-8.68,-3.72,0,5,2
4.05,-7.97,-2.8,0,5,2
4.08,-7.87,-2.69,0,5,2
4.43,-8.5,-3.77,0,5,2
4.13,-8.88,-3.89,0,5,2
4.6,-8.39,-3.2,0,5,2
4.45,-8.55,-3.02,0,5,2
4.19,-8.81,-4.07,0,5,2
3.92,-8.69,-4.0,0,5,2
4.31,-8.27,-3.27,0,5,2
4.45,-8.7,-3.01,0,5,2
3.96,-8.97,-4.64,0,5,2
3.96,-8.35,-3.83,0,5,2
4.3,-7.84,-2.88,0,5,2
4.33,-8.28,-3.36,0,5,2
3.81,-8.49,-4.45,0,5,2
4.3,-8.1,-3.26,0,5,2
4.58,-8.16,-2.93,0,5,2
4.69,-8.7,-3.82,0,5,2
4.62,-8.74,-3.86,0,5,2
4.6,-8.58,-3.86,0,5,2
4.73,-8.92,-3.76,0,5,2
4.79,-8.8,-4.33,0,5,2
4.34,-8.75,-4.63,0,5,2
5.05,-9.23,-4.39,0,5,2
6.17,-9.86,-3.5,0,5,2
-6.88,-0.67,-4.77,0,5,3
-6.17,-0.67,-4.2,0,5,3
-4.88,-2.55,-4.21,0,5,3
-4.32,-3.87,-4.32,0,5,3
-5.68,-3.75,-5.27,0,5,3
-6.63,-2.62,-5.6,0,5,3
-6.74,-2.11,-5.22,0,5,3
-6.44,-1.75,-4.49,0,5,3
-7.59,-1.41,-5.13,0,5,3
-8.33,-0.81,-6.05,0,5,3
-8.92,-1.07,-6.4,0,5,3
-8.12,-0.78,-5.27,0,5,3
-8.54,-1.19,-5.38,0,5,3
-9.39,-0.86,-5.59,0,5,3
-8.49,-0.59,-4.8,0,5,3
-6.46,-1.07,-3.95,0,5,3
-6.62,-1.71,-4.61,0,5,3
-7.13,-0.59,-5.84,0,5,3
-4.66,-0.72,-3.14,0,5,3
-3.93,-0.91,-2.79,0,5,3
-3.36,-0.64,-2.11,0,5,3
-3.2,-1.85,-4.49,0,5,3
-2.67,-1.59,-7.42,0,5,3
0.97,-3.46,-8.16,0,5,3
6.66,-10.69,-9.86,0,5,3
10.78,-15.87,-6.63,0,5,3
16.04,-16.72,-2.66,0,5,3
8.24,-11.43,-8.39,0,5,3
2.87,-12.34,-9.57,0,5,3
7.71,-13.8,-7.86,0,5,3
7.23,-10.75,-6.93,0,5,3
8.12,-8.01,-1.42,0,5,3
7.11,-8.13,-2.46,0,5,3
12.71,-14.57,-6.43,0,5,3
15.61,-19.58,-4.4,0,5,3
15.13,-14.39,-3.84,0,5,3
6.84,-10.33,-3.8,0,5,3
11.52,-12.07,-3.65,0,5,3
11.17,-9.2,-2.51,0,5,3
11.24,-7.0,2.08,0,5,3
10.01,-6.62,0.28,0,5,3
2.04,-8.76,-8.08,0,5,3
2.78,-9.78,-6.5,0,5,3
5.07,-9.33,-4.45,0,5,3
6.54,-8.14,0.27,0,5,3
2.28,-8.11,-3.45,0,5,3
0.4,-7.32,-3.33,0,5,3
0.86,-7.22,-4.34,0,5,3
2.3,-7.09,-3.81,0,5,3
3.54,-8.67,-2.42,0,5,3
3.53,-10.67,-4.37,0,5,3
3.22,-9.76,-5.58,0,5,3
2.2,-7.59,-5.01,0,5,3
2.79,-7.43,-3.63,0,5,3
3.75,-7.83,-4.36,0,5,3
4.7,-8.44,-3.49,0,5,3
5.42,-8.73,-3.21,0,5,3
4.2,-8.31,-4.82,0,5,3
4.21,-7.45,-3.5,0,5,3
4.28,-7.02,-2.55,0,5,3
4.38,-7.74,-3.5,0,5,3
4.62,-8.56,-4.43,0,5,3
5.38,-7.92,-2.63,0,5,3
4.62,-7.81,-2.59,0,5,3
4.54,-8.89,-3.47,0,5,3
4.69,-8.96,-3.74,0,5,3
4.45,-8.01,-3.03,0,5,3
4.33,-7.7,-2.76,0,5,3
4.49,-8.41,-3.3,0,5,3
4.0,-8.68,-3.72,0,5,3
4.05,-7.97,-2.8,0,5,3
4.08,-7.87,-2.69,0,5,3
4.43,-8.5,-3.77,0,5,3
4.13,-8.88,-3.89,0,5,3
4.6,-8.39,-3.2,0,5,3
4.45,-8.55,-3.02,0,5,3
4.19,-8.81,-4.07,0,5,3
3.92,-8.69,-4.0,0,5,3
4.31,-8.27,-3.27,0,5,3
4.45,-8.7,-3.01,0,5,3
3.96,-8.97,-4.64,0,5,3
3.96,-8.35,-3.83,0,5,3
4.3,-7.84,-2.88,0,5,3
4.33,-8.28,-3.36,0,5,3
3.81,-8.49,-4.45,0,5,3
4.3,-8.1,-3.26,0,5,3
4.58,-8.16,-2.93,0,5,3
4.69,-8.7,-3.82,0,5,3
4.62,-8.74,-3.86,0,5,3
4.6,-8.58,-3.86,0,5,3
4.73,-8.92,-3.76,0,5,3
4.79,-8.8,-4.33,0,5,3
4.34,-8.75,-4.63,0,5,3
5.05,-9.23,-4.39,0,5,3
6.17,-9.86,-3.5,0,5,3
5.9,-9.84,-4.37,0,5,3
5.29,-9.68,-4.52,0,5,3
5.67,-9.57,-4.11,0,5,3
5.59,-9.58,-4.36,0,5,3
4.81,-9.3,-4.58,0,5,3
-6.63,-2.62,-5.6,0,5,4
-6.74,-2.11,-5.22,0,5,4
-6.44,-1.75,-4.49,0,5,4
-7.59,-1.41,-5.13,0,5,4
-8.33,-0.81,-6.05,0,5,4
-8.92,-1.07,-6.4,0,5,4
-8.12,-0.78,-5.27,0,5,4
-8.54,-1.19,-5.38,0,5,4
-9.39,-0.86,-5.59,0,5,4
-8.49,-0.59,-4.8,0,5,4
-6.46,-1.07,-3.95,0,5,4
-6.62,-1.71,-4.61,0,5,4
-7.13,-0.59,-5.84,0,5,4
-4.66,-0.72,-3.14,0,5,4
-3.93,-0.91,-2.79,0,5,4
-3.36,-0.64,-2.11,0,5,4
-3.2,-1.85,-4.49,0,5,4
-2.67,-1.59,-7.42,0,5,4
0.97,-3.46,-8.16,0,5,4
6.66,-10.69,-9.86,0,5,4
10.78,-15.87,-6.63,0,5,4
16.04,-16.72,-2.66,0,5,4
8.24,-11.43,-8.39,0,5,4
2.87,-12.34,-9.57,0,5,4
7.71,-13.8,-7.86,0,5,4
7.23,-10.75,-6.93,0,5,4
8.12,-8.01,-1.42,0,5,4
7.11,-8.13,-2.46,0,5,4
12.71,-14.57,-6.43,0,5,4
15.61,-19.58,-4.4,0,5,4
15.13,-14.39,-3.84,0,5,4
6.84,-10.33,-3.8,0,5,4
11.52,-12.07,-3.65,0,5,4
11.17,-9.2,-2.51,0,5,4
11.24,-7.0,2.08,0,5,4
10.01,-6.62,0.28,0,5,4
2.04,-8.76,-8.08,0,5,4
2.78,-9.78,-6.5,0,5,4
5.07,-9.33,-4.45,0,5,4
6.54,-8.14,0.27,0,5,4
2.28,-8.11,-3.45,0,5,4
0.4,-7.32,-3.33,0,5,4
0.86,-7.22,-4.34,0,5,4
2.3,-7.09,-3.81,0,5,4
3.54,-8.67,-2.42,0,5,4
3.53,-10.67,-4.37,0,5,4
3.22,-9.76,-5.58,0,5,4
2.2,-7.59,-5.01,0,5,4
2.79,-7.43,-3.63,0,5,4
3.75,-7.83,-4.36,0,5,4
4.7,-8.44,-3.49,0,5,4
5.42,-8.73,-3.21,0,5,4
4.2,-8.31,-4.82,0,5,4
4.21,-7.45,-3.5,0,5,4
4.28,-7.02,-2.55,0,5,4
4.38,-7.74,-3.5,0,5,4
4.62,-8.56,-4.43,0,5,4
5.38,-7.92,-2.63,0,5,4
4.62,-7.81,-2.59,0,5,4
4.54,-8.89,-3.47,0,5,4
4.69,-8.96,-3.74,0,5,4
4.45,-8.01,-3.03,0,5,4
4.33,-7.7,-2.76,0,5,4
4.49,-8.41,-3.3,0,5,4
4.0,-8.68,-3.72,0,5,4
4.05,-7.97,-2.8,0,5,4
4.08,-7.87,-2.69,0,5,4
4.43,-8.5,-3.77,0,5,4
4.13,-8.88,-3.89,0,5,4
4.6,-8.39,-3.2,0,5,4
4.45,-8.55,-3.02,0,5,4
4.19,-8.81,-4.07,0,5,4
3.92,-8.69,-4.0,0,5,4
4.31,-8.27,-3.27,0,5,4
4.45,-8.7,-3.01,0,5,4
3.96,-8.97,-4.64,0,5,4
3.96,-8.35,-3.83,0,5,4
4.3,-7.84,-2.88,0,5,4
4.33,-8.28,-3.36,0,5,4
3.81,-8.49,-4.45,0,5,4
4.3,-8.1,-3.26,0,5,4
4.58,-8.16,-2.93,0,5,4
4.69,-8.7,-3.82,0,5,4
4.62,-8.74,-3.86,0,5,4
4.6,-8.58,-3.86,0,5,4
4.73,-8.92,-3.76,0,5,4
4.79,-8.8,-4.33,0,5,4
4.34,-8.75,-4.63,0,5,4
5.05,-9.23,-4.39,0,5,4
6.17,-9.86,-3.5,0,5,4
5.9,-9.84,-4.37,0,5,4
5.29,-9.68,-4.52,0,5,4
5.67,-9.57,-4.11,0,5,4
5.59,-9.58,-4.36,0,5,4
4.81,-9.3,-4.58,0,5,4
4.44,-9.21,-4.32,0,5,4
4.87,-9.52,-4.8,0,5,4
4.96,-9.81,-4.91,0,5,4
4.89,-9.23,-4.15,0,5,4
4.61,-8.76,-4.75,0,5,4
-8.92,-1.07,-6.4,0,5,5
-8.12,-0.78,-5.27,0,5,5
-8.54,-1.19,-5.38,0,5,5
-9.39,-0.86,-5.59,0,5,5
-8.49,-0.59,-4.8,0,5,5
-6.46,-1.07,-3.95,0,5,5
-6.62,-1.71,-4.61,0,5,5
-7.13,-0.59,-5.84,0,5,5
-4.66,-0.72,-3.14,0,5,5
-3.93,-0.91,-2.79,0,5,5
-3.36,-0.64,-2.11,0,5,5
-3.2,-1.85,-4.49,0,5,5
-2.67,-1.59,-7.42,0,5,5
0.97,-3.46,-8.16,0,5,5
6.66,-10.69,-9.86,0,5,5
10.78,-15.87,-6.63,0,5,5
16.04,-16.72,-2.66,0,5,5
8.24,-11.43,-8.39,0,5,5
2.87,-12.34,-9.57,0,5,5
7.71,-13.8,-7.86,0,5,5
7.23,-10.75,-6.93,0,5,5
8.12,-8.01,-1.42,0,5,5
7.11,-8.13,-2.46,0,5,5
12.71,-14.57,-6.43,0,5,5
15.61,-19.58,-4.4,0,5,5
15.13,-14.39,-3.84,0,5,5
6.84,-10.33,-3.8,0,5,5
11.52,-12.07,-3.65,0,5,5
11.17,-9.2,-2.51,0,5,5
11.24,-7.0,2.08,0,5,5
10.01,-6.62,0.28,0,5,5
2.04,-8.76,-8.08,0,5,5
2.78,-9.78,-6.5,0,5,5
5.07,-9.33,-4.45,0,5,5
6.54,-8.14,0.27,0,5,5
2.28,-8.11,-3.45,0,5,5
0.4,-7.32,-3.33,0,5,5
0.86,-7.22,-4.34,0,5,5
2.3,-7.09,-3.81,0,5,5
3.54,-8.67,-2.42,0,5,5
3.53,-10.67,-4.37,0,5,5
3.22,-9.76,-5.58,0,5,5
2.2,-7.59,-5.01,0,5,5
2.79,-7.43,-3.63,0,5,5
3.75,-7.83,-4.36,0,5,5
4.7,-8.44,-3.49,0,5,5
5.42,-8.73,-3.21,0,5,5
4.2,-8.31,-4.82,0,5,5
4.21,-7.45,-3.5,0,5,5
4.28,-7.02,-2.55,0,5,5
4.38,-7.74,-3.5,0,5,5
4.62,-8.56,-4.43,0,5,5
5.38,-7.92,-2.63,0,5,5
4.62,-7.81,-2.59,0,5,5
4.54,-8.89,-3.47,0,5,5
4.69,-8.96,-3.74,0,5,5
4.45,-8.01,-3.03,0,5,5
4.33,-7.7,-2.76,0,5,5
4.49,-8.41,-3.3,0,5,5
4.0,-8.68,-3.72,0,5,5
4.05,-7.97,-2.8,0,5,5
4.08,-7.87,-2.69,0,5,5
4.43,-8.5,-3.77,0,5,5
4.13,-8.88,-3.89,0,5,5
4.6,-8.39,-3.2,0,5,5
4.45,-8.55,-3.02,0,5,5
4.19,-8.81,-4.07,0,5,5
3.92,-8.69,-4.0,0,5,5
4.31,-8.27,-3.27,0,5,5
4.45,-8.7,-3.01,0,5,5
3.96,-8.97,-4.64,0,5,5
3.96,-8.35,-3.83,0,5,5
4.3,-7.84,-2.88,0,5,5
4.33,-8.28,-3.36,0,5,5
3.81,-8.49,-4.45,0,5,5
4.3,-8.1,-3.26,0,5,5
4.58,-8.16,-2.93,0,5,5
4.69,-8.7,-3.82,0,5,5
4.62,-8.74,-3.86,0,5,5
4.6,-8.58,-3.86,0,5,5
4.73,-8.92,-3.76,0,5,5
4.79,-8.8,-4.33,0,5,5
4.34,-8.75,-4.63,0,5,5
5.05,-9.23,-4.39,0,5,5
6.17,-9.86,-3.5,0,5,5
5.9,-9.84,-4.37,0,5,5
5.29,-9.68,-4.52,0,5,5
5.67,-9.57,-4.11,0,5,5
5.59,-9.58,-4.36,0,5,5
4.81,-9.3,-4.58,0,5,5
4.44,-9.21,-4.32,0,5,5
4.87,-9.52,-4.8,0,5,5
4.96,-9.81,-4.91,0,5,5
4.89,-9.23,-4.15,0,5,5
4.61,-8.76,-4.75,0,5,5
4.6,-8.83,-4.3,0,5,5
4.57,-8.55,-3.85,0,5,5
4.1,-8.21,-4.56,0,5,5
4.67,-8.26,-4.0,0,5,5
4.73,-8.39,-3.3,0,5,5
-6.46,-1.07,-3.95,0,5,6
-6.62,-1.71,-4.61,0,5,6
-7.13,-0.59,-5.84,0,5,6
-4.66,-0.72,-3.14,0,5,6
-3.93,-0.91,-2.79,0,5,6
-3.36,-0.64,-2.11,0,5,6
-3.2,-1.85,-4.49,0,5,6
-2.67,-1.59,-7.42,0,5,6
0.97,-3.46,-8.16,0,5,6
6.66,-10.69,-9.86,0,5,6
10.78,-15.87,-6.63,0,5,6
16.04,-16.72,-2.66,0,5,6
8.24,-11.43,-8.39,0,5,6
2.87,-12.34,-9.57,0,5,6
7.71,-13.8,-7.86,0,5,6
7.23,-10.75,-6.93,0,5,6
8.12,-8.01,-1.42,0,5,6
7.11,-8.13,-2.46,0,5,6
12.71,-14.57,-6.43,0,5,6
15.61,-19.58,-4.4,0,5,6
15.13,-14.39,-3.84,0,5,6
6.84,-10.33,-3.8,0,5,6
11.52,-12.07,-3.65,0,5,6
11.17,-9.2,-2.51,0,5,6
11.24,-7.0,2.08,0,5,6
10.01,-6.62,0.28,0,5,6
2.04,-8.76,-8.08,0,5,6
2.78,-9.78,-6.5,0,5,6
5.07,-9.33,-4.45,0,5,6
6.54,-8.14,0.27,0,5,6
2.28,-8.11,-3.45,0,5,6
0.4,-7.32,-3.33,0,5,6
0.86,-7.22,-4.34,0,5,6
2.3,-7.09,-3.81,0,5,6
3.54,-8.67,-2.42,0,5,6
3.53,-10.67,-4.37,0,5,6
3.22,-9.76,-5.58,0,5,6
2.2,-7.59,-5.01,0,5,6
2.79,-7.43,-3.63,0,5,6
3.75,-7.83,-4.36,0,5,6
4.7,-8.44,-3.49,0,5,6
5.42,-8.73,-3.21,0,5,6
4.2,-8.31,-4.82,0,5,6
4.21,-7.45,-3.5,0,5,6
4.28,-7.02,-2.55,0,5,6
4.38,-7.74,-3.5,0,5,6
4.62,-8.56,-4.43,0,5,6
5.38,-7.92,-2.63,0,5,6
4.62,-7.81,-2.59,0,5,6
4.54,-8.89,-3.47,0,5,6
4.69,-8.96,-3.74,0,5,6
4.45,-8.01,-3.03,0,5,6
4.33,-7.7,-2.76,0,5,6
4.49,-8.41,-3.3,0,5,6
4.0,-8.68,-3.72,0,5,6
4.05,-7.97,-2.8,0,5,6
4.08,-7.87,-2.69,0,5,6
4.43,-8.5,-3.77,0,5,6
4.13,-8.88,-3.89,0,5,6
4.6,-8.39,-3.2,0,5,6
4.45,-8.55,-3.02,0,5,6
4.19,-8.81,-4.07,0,5,6
3.92,-8.69,-4.0,0,5,6
4.31,-8.27,-3.27,0,5,6
4.45,-8.7,-3.01,0,5,6
3.96,-8.97,-4.64,0,5,6
3.96,-8.35,-3.83,0,5,6
4.3,-7.84,-2.88,0,5,6
4.33,-8.28,-3.36,0,5,6
3.81,-8.49,-4.45,0,5,6
4.3,-8.1,-3.26,0,5,6
4.58,-8.16,-2.93,0,5,6
4.69,-8.7,-3.82,0,5,6
4.62,-8.74,-3.86,0,5,6
4.6,-8.58,-3.86,0,5,6
4.73,-8.92,-3.76,0,5,6
4.79,-8.8,-4.33,0,5,6
4.34,-8.75,-4.63,0,5,6
5.05,-9.23,-4.39,0,5,6
6.17,-9.86,-3.5,0,5,6
5.9,-9.84,-4.37,0,5,6
5.29,-9.68,-4.52,0,5,6
5.67,-9.57,-4.11,0,5,6
5.59,-9.58,-4.36,0,5,6
4.81,-9.3,-4.58,0,5,6
4.44,-9.21,-4.32,0,5,6
4.87,-9.52,-4.8,0,5,6
4.96,-9.81,-4.91,0,5,6
4.89,-9.23,-4.15,0,5,6
4.61,-8.76,-4.75,0,5,6
4.6,-8.83,-4.3,0,5,6
4.57,-8.55,-3.85,0,5,6
4.1,-8.21,-4.56,0,5,6
4.67,-8.26,-4.0,0,5,6
4.73,-8.39,-3.3,0,5,6
4.14,-7.91,-3.92,0,5,6
3.99,-7.87,-3.67,0,5,6
3.79,-8.4,-3.35,0,5,6
3.64,-7.96,-3.1,0,5,6
3.25,-7.9,-3.21,0,5,6
-3.36,-0.64,-2.11,0,5,7
-3.2,-1.85,-4.49,0,5,7
-2.67,-1.59,-7.42,0,5,7
0.97,-3.46,-8.16,0,5,7
6.66,-10.69,-9.86,0,5,7
10.78,-15.87,-6.63,0,5,7
16.04,-16.72,-2.66,0,5,7
8.24,-11.43,-8.39,0,5,7
2.87,-12.34,-9.57,0,5,7
7.71,-13.8,-7.86,0,5,7
7.23,-10.75,-6.93,0,5,7
8.12,-8.01,-1.42,0,5,7
7.11,-8.13,-2.46,0,5,7
12.71,-14.57,-6.43,0,5,7
15.61,-19.58,-4.4,0,5,7
15.13,-14.39,-3.84,0,5,7
6.84,-10.33,-3.8,0,5,7
11.52,-12.07,-3.65,0,5,7
11.17,-9.2,-2.51,0,5,7
11.24,-7.0,2.08,0,5,7
10.01,-6.62,0.28,0,5,7
2.04,-8.76,-8.08,0,5,7
2.78,-9.78,-6.5,0,5,7
5.07,-9.33,-4.45,0,5,7
6.54,-8.14,0.27,0,5,7
2.28,-8.11,-3.45,0,5,7
0.4,-7.32,-3.33,0,5,7
0.86,-7.22,-4.34,0,5,7
2.3,-7.09,-3.81,0,5,7
3.54,-8.67,-2.42,0,5,7
3.53,-10.67,-4.37,0,5,7
3.22,-9.76,-5.58,0,5,7
2.2,-7.59,-5.01,0,5,7
2.79,-7.43,-3.63,0,5,7
3.75,-7.83,-4.36,0,5,7
4.7,-8.44,-3.49,0,5,7
5.42,-8.73,-3.21,0,5,7
4.2,-8.31,-4.82,0,5,7
4.21,-7.45,-3.5,0,5,7
4.28,-7.02,-2.55,0,5,7
4.38,-7.74,-3.5,0,5,7
4.62,-8.56,-4.43,0,5,7
5.38,-7.92,-2.63,0,5,7
4.62,-7.81,-2.59,0,5,7
4.54,-8.89,-3.47,0,5,7
4.69,-8.96,-3.74,0,5,7
4.45,-8.01,-3.03,0,5,7
4.33,-7.7,-2.76,0,5,7
4.49,-8.41,-3.3,0,5,7
4.0,-8.68,-3.72,0,5,7
4.05,-7.97,-2.8,0,5,7
4.08,-7.87,-2.69,0,5,7
4.43,-8.5,-3.77,0,5,7
4.13,-8.88,-3.89,0,5,7
4.6,-8.39,-3.2,0,5,7
4.45,-8.55,-3.02,0,5,7
4.19,-8.81,-4.07,0,5,7
3.92,-8.69,-4.0,0,5,7
4.31,-8.27,-3.27,0,5,7
4.45,-8.7,-3.01,0,5,7
3.96,-8.97,-4.64,0,5,7
3.96,-8.35,-3.83,0,5,7
4.3,-7.84,-2.88,0,5,7
4.33,-8.28,-3.36,0,5,7
3.81,-8.49,-4.45,0,5,7
4.3,-8.1,-3.26,0,5,7
4.58,-8.16,-2.93,0,5,7
4.69,-8.7,-3.82,0,5,7
4.62,-8.74,-3.86,0,5,7
4.6,-8.58,-3.86,0,5,7
4.73,-8.92,-3.76,0,5,7
4.79,-8.8,-4.33,0,5,7
4.34,-8.75,-4.63,0,5,7
5.05,-9.23,-4.39,0,5,7
6.17,-9.86,-3.5,0,5,7
5.9,-9.84,-4.37,0,5,7
5.29,-9.68,-4.52,0,5,7
5.67,-9.57,-4.11,0,5,7
5.59,-9.58,-4.36,0,5,7
4.81,-9.3,-4.58,0,5,7
4.44,-9.21,-4.32,0,5,7
4.87,-9.52,-4.8,0,5,7
4.96,-9.81,-4.91,0,5,7
4.89,-9.23,-4.15,0,5,7
4.61,-8.76,-4.75,0,5,7
4.6,-8.83,-4.3,0,5,7
4.57,-8.55,-3.85,0,5,7
4.1,-8.21,-4.56,0,5,7
4.67,-8.26,-4.0,0,5,7
4.73,-8.39,-3.3,0,5,7
4.14,-7.91,-3.92,0,5,7
3.99,-7.87,-3.67,0,5,7
3.79,-8.4,-3.35,0,5,7
3.64,-7.96,-3.1,0,5,7
3.25,-7.9,-3.21,0,5,7
3.28,-8.74,-2.7,0,5,7
3.2,-8.59,-3.31,0,5,7
3.18,-8.23,-3.79,0,5,7
3.56,-8.74,-3.06,0,5,7
2.97,-9.27,-3.76,0,5,7
10.78,-15.87,-6.63,0,5,8
16.04,-16.72,-2.66,0,5,8
8.24,-11.43,-8.39,0,5,8
2.87,-12.34,-9.57,0,5,8
7.71,-13.8,-7.86,0,5,8
7.23,-10.75,-6.93,0,5,8
8.12,-8.01,-1.42,0,5,8
7.11,-8.13,-2.46,0,5,8
12.71,-14.57,-6.43,0,5,8
15.61,-19.58,-4.4,0,5,8
15.13,-14.39,-3.84,0,5,8
6.84,-10.33,-3.8,0,5,8
11.52,-12.07,-3.65,0,5,8
11.17,-9.2,-2.51,0,5,8
11.24,-7.0,2.08,0,5,8
10.01,-6.62,0.28,0,5,8
2.04,-8.76,-8.08,0,5,8
2.78,-9.78,-6.5,0,5,8
5.07,-9.33,-4.45,0,5,8
6.54,-8.14,0.27,0,5,8
2.28,-8.11,-3.45,0,5,8
0.4,-7.32,-3.33,0,5,8
0.86,-7.22,-4.34,0,5,8
2.3,-7.09,-3.81,0,5,8
3.54,-8.67,-2.42,0,5,8
3.53,-10.67,-4.37,0,5,8
3.22,-9.76,-5.58,0,5,8
2.2,-7.59,-5.01,0,5,8
2.79,-7.43,-3.63,0,5,8
3.75,-7.83,-4.36,0,5,8
4.7,-8.44,-3.49,0,5,8
5.42,-8.73,-3.21,0,5,8
4.2,-8.31,-4.82,0,5,8
4.21,-7.45,-3.5,0,5,8
4.28,-7.02,-2.55,0,5,8
4.38,-7.74,-3.5,0,5,8
4.62,-8.56,-4.43,0,5,8
5.38,-7.92,-2.63,0,5,8
4.62,-7.81,-2.59,0,5,8
4.54,-8.89,-3.47,0,5,8
4.69,-8.96,-3.74,0,5,8
4.45,-8.01,-3.03,0,5,8
4.33,-7.7,-2.76,0,5,8
4.49,-8.41,-3.3,0,5,8
4.0,-8.68,-3.72,0,5,8
4.05,-7.97,-2.8,0,5,8
4.08,-7.87,-2.69,0,5,8
4.43,-8.5,-3.77,0,5,8
4.13,-8.88,-3.89,0,5,8
4.6,-8.39,-3.2,0,5,8
4.45,-8.55,-3.02,0,5,8
4.19,-8.81,-4.07,0,5,8
3.92,-8.69,-4.0,0,5,8
4.31,-8.27,-3.27,0,5,8
4.45,-8.7,-3.01,0,5,8
3.96,-8.97,-4.64,0,5,8
3.96,-8.35,-3.83,0,5,8
4.3,-7.84,-2.88,0,5,8
4.33,-8.28,-3.36,0,5,8
3.81,-8.49,-4.45,0,5,8
4.3,-8.1,-3.26,0,5,8
4.58,-8.16,-2.93,0,5,8
4.69,-8.7,-3.82,0,5,8
4.62,-8.74,-3.86,0,5,8
4.6,-8.58,-3.86,0,5,8
4.73,-8.92,-3.76,0,5,8
4.79,-8.8,-4.33,0,5,8
4.34,-8.75,-4.63,0,5,8
5.05,-9.23,-4.39,0,5,8
6.17,-9.86,-3.5,0,5,8
5.9,-9.84,-4.37,0,5,8
5.29,-9.68,-4.52,0,5,8
5.67,-9.57,-4.11,0,5,8
5.59,-9.58,-4.36,0,5,8
4.81,-9.3,-4.58,0,5,8
4.44,-9.21,-4.32,0,5,8
4.87,-9.52,-4.8,0,5,8
4.96,-9.81,-4.91,0,5,8
4.89,-9.23,-4.15,0,5,8
4.61,-8.76,-4.75,0,5,8
4.6,-8.83,-4.3,0,5,8
4.57,-8.55,-3.85,0,5,8
4.1,-8.21,-4.56,0,5,8
4.67,-8.26,-4.0,0,5,8
4.73,-8.39,-3.3,0,5,8
4.14,-7.91,-3.92,0,5,8
3.99,-7.87,-3.67,0,5,8
3.79,-8.4,-3.35,0,5,8
3.64,-7.96,-3.1,0,5,8
3.25,-7.9,-3.21,0,5,8
3.28,-8.74,-2.7,0,5,8
3.2,-8.59,-3.31,0,5,8
3.18,-8.23,-3.79,0,5,8
3.56,-8.74,-3.06,0,5,8
2.97,-9.27,-3.76,0,5,8
2.46,-8.82,-3.79,0,5,8
3.36,-9.01,-2.93,0,5,8
3.38,-9.15,-3.33,0,5,8
2.54,-9.48,-3.96,0,5,8
2.73,-9.85,-4.19,0,5,8
7.23,-10.75,-6.93,0,5,9
8.12,-8.01,-1.42,0,5,9
7.11,-8.13,-2.46,0,5,9
12.71,-14.57,-6.43,0,5,9
15.61,-19.58,-4.4,0,5,9
15.13,-14.39,-3.84,0,5,9
6.84,-10.33,-3.8,0,5,9
11.52,-12.07,-3.65,0,5,9
11.17,-9.2,-2.51,0,5,9
11.24,-7.0,2.08,0,5,9
10.01,-6.62,0.28,0,5,9
2.04,-8.76,-8.08,0,5,9
2.78,-9.78,-6.5,0,5,9
5.07,-9.33,-4.45,0,5,9
6.54,-8.14,0.27,0,5,9
2.28,-8.11,-3.45,0,5,9
0.4,-7.32,-3.33,0,5,9
0.86,-7.22,-4.34,0,5,9
2.3,-7.09,-3.81,0,5,9
3.54,-8.67,-2.42,0,5,9
3.53,-10.67,-4.37,0,5,9
3.22,-9.76,-5.58,0,5,9
2.2,-7.59,-5.01,0,5,9
2.79,-7.43,-3.63,0,5,9
3.75,-7.83,-4.36,0,5,9
4.7,-8.44,-3.49,0,5,9
5.42,-8.73,-3.21,0,5,9
4.2,-8.31,-4.82,0,5,9
4.21,-7.45,-3.5,0,5,9
4.28,-7.02,-2.55,0,5,9
4.38,-7.74,-3.5,0,5,9
4.62,-8.56,-4.43,0,5,9
5.38,-7.92,-2.63,0,5,9
4.62,-7.81,-2.59,0,5,9
4.54,-8.89,-3.47,0,5,9
4.69,-8.96,-3.74,0,5,9
4.45,-8.01,-3.03,0,5,9
4.33,-7.7,-2.76,0,5,9
4.49,-8.41,-3.3,0,5,9
4.0,-8.68,-3.72,0,5,9
4.05,-7.97,-2.8,0,5,9
4.08,-7.87,-2.69,0,5,9
4.43,-8.5,-3.77,0,5,9
4.13,-8.88,-3.89,0,5,9
4.6,-8.39,-3.2,0,5,9
4.45,-8.55,-3.02,0,5,9
4.19,-8.81,-4.07,0,5,9
3.92,-8.69,-4.0,0,5,9
4.31,-8.27,-3.27,0,5,9
4.45,-8.7,-3.01,0,5,9
3.96,-8.97,-4.64,0,5,9
3.96,-8.35,-3.83,0,5,9
4.3,-7.84,-2.88,0,5,9
4.33,-8.28,-3.36,0,5,9
3.81,-8.49,-4.45,0,5,9
4.3,-8.1,-3.26,0,5,9
4.58,-8.16,-2.93,0,5,9
4.69,-8.7,-3.82,0,5,9
4.62,-8.74,-3.86,0,5,9
4.6,-8.58,-3.86,0,5,9
4.73,-8.92,-3.76,0,5,9
4.79,-8.8,-4.33,0,5,9
4.34,-8.75,-4.63,0,5,9
5.05,-9.23,-4.39,0,5,9
6.17,-9.86,-3.5,0,5,9
5.9,-9.84,-4.37,0,5,9
5.29,-9.68,-4.52,0,5,9
5.67,-9.57,-4.11,0,5,9
5.59,-9.58,-4.36,0,5,9
4.81,-9.3,-4.58,0,5,9
4.44,-9.21,-4.32,0,5,9
4.87,-9.52,-4.8,0,5,9
4.96,-9.81,-4.91,0,5,9
4.89,-9.23,-4.15,0,5,9
4.61,-8.76,-4.75,0,5,9
4.6,-8.83,-4.3,0,5,9
4.57,-8.55,-3.85,0,5,9
4.1,-8.21,-4.56,0,5,9
4.67,-8.26,-4.0,0,5,9
4.73,-8.39,-3.3,0,5,9
4.14,-7.91,-3.92,0,5,9
3.99,-7.87,-3.67,0,5,9
3.79,-8.4,-3.35,0,5,9
3.64,-7.96,-3.1,0,5,9
3.25,-7.9,-3.21,0,5,9
3.28,-8.74,-2.7,0,5,9
3.2,-8.59,-3.31,0,5,9
3.18,-8.23,-3.79,0,5,9
3.56,-8.74,-3.06,0,5,9
2.97,-9.27,-3.76,0,5,9
2.46,-8.82,-3.79,0,5,9
3.36,-9.01,-2.93,0,5,9
3.38,-9.15,-3.33,0,5,9
2.54,-9.48,-3.96,0,5,9
2.73,-9.85,-4.19,0,5,9
2.7,-9.78,-3.68,0,5,9
2.28,-8.97,-4.1,0,5,9
2.11,-8.32,-3.25,0,5,9
2.9,-8.72,-2.76,0,5,9
2.67,-9.5,-3.52,0,5,9
15.13,-14.39,-3.84,0,5,10
6.84,-10.33,-3.8,0,5,10
11.52,-12.07,-3.65,0,5,10
11.17,-9.2,-2.51,0,5,10
11.24,-7.0,2.08,0,5,10
10.01,-6.62,0.28,0,5,10
2.04,-8.76,-8.08,0,5,10
2.78,-9.78,-6.5,0,5,10
5.07,-9.33,-4.45,0,5,10
6.54,-8.14,0.27,0,5,10
2.28,-8.11,-3.45,0,5,10
0.4,-7.32,-3.33,0,5,10
0.86,-7.22,-4.34,0,5,10
2.3,-7.09,-3.81,0,5,10
3.54,-8.67,-2.42,0,5,10
3.53,-10.67,-4.37,0,5,10
3.22,-9.76,-5.58,0,5,10
2.2,-7.59,-5.01,0,5,10
2.79,-7.43,-3.63,0,5,10
3.75,-7.83,-4.36,0,5,10
4.7,-8.44,-3.49,0,5,10
5.42,-8.73,-3.21,0,5,10
4.2,-8.31,-4.82,0,5,10
4.21,-7.45,-3.5,0,5,10
4.28,-7.02,-2.55,0,5,10
4.38,-7.74,-3.5,0,5,10
4.62,-8.56,-4.43,0,5,10
5.38,-7.92,-2.63,0,5,10
4.62,-7.81,-2.59,0,5,10
4.54,-8.89,-3.47,0,5,10
4.69,-8.96,-3.74,0,5,10
4.45,-8.01,-3.03,0,5,10
4.33,-7.7,-2.76,0,5,10
4.49,-8.41,-3.3,0,5,10
4.0,-8.68,-3.72,0,5,10
4.05,-7.97,-2.8,0,5,10
4.08,-7.87,-2.69,0,5,10
4.43,-8.5,-3.77,0,5,10
4.13,-8.88,-3.89,0,5,10
4.6,-8.39,-3.2,0,5,10
4.45,-8.55,-3.02,0,5,10
4.19,-8.81,-4.07,0,5,10
3.92,-8.69,-4.0,0,5,10
4.31,-8.27,-3.27,0,5,10
4.45,-8.7,-3.01,0,5,10
3.96,-8.97,-4.64,0,5,10
3.96,-8.35,-3.83,0,5,10
4.3,-7.84,-2.88,0,5,10
4.33,-8.28,-3.36,0,5,10
3.81,-8.49,-4.45,0,5,10
4.3,-8.1,-3.26,0,5,10
4.58,-8.16,-2.93,0,5,10
4.69,-8.7,-3.82,0,5,10
4.62,-8.74,-3.86,0,5,10
4.6,-8.58,-3.86,0,5,10
4.73,-8.92,-3.76,0,5,10
4.79,-8.8,-4.33,0,5,10
4.34,-8.75,-4.63,0,5,10
5.05,-9.23,-4.39,0,5,10
6.17,-9.86,-3.5,0,5,10
5.9,-9.84,-4.37,0,5,10
5.29,-9.68,-4.52,0,5,10
5.67,-9.57,-4.11,0,5,10
5.59,-9.58,-4.36,0,5,10
4.81,-9.3,-4.58,0,5,10
4.44,-9.21,-4.32,0,5,10
4.87,-9.52,-4.8,0,5,10
4.96,-9.81,-4.91,0,5,10
4.89,-9.23,-4.15,0,5,10
4.61,-8.76,-4.75,0,5,10
4.6,-8.83,-4.3,0,5,10
4.57,-8.55,-3.85,0,5,10
4.1,-8.21,-4.56,0,5,10
4.67,-8.26,-4.0,0,5,10
4.73,-8.39,-3.3,0,5,10
4.14,-7.91,-3.92,0,5,10
3.99,-7.87,-3.67,0,5,10
3.79,-8.4,-3.35,0,5,10
3.64,-7.96,-3.1,0,5,10
3.25,-7.9,-3.21,0,5,10
3.28,-8.74,-2.7,0,5,10
3.2,-8.59,-3.31,0,5,10
3.18,-8.23,-3.79,0,5,10
3.56,-8.74,-3.06,0,5,10
2.97,-9.27,-3.76,0,5,10
2.46,-8.82,-3.79,0,5,10
3.36,-9.01,-2.93,0,5,10
3.38,-9.15,-3.33,0,5,10
2.54,-9.48,-3.96,0,5,10
2.73,-9.85,-4.19,0,5,10
2.7,-9.78,-3.68,0,5,10
2.28,-8.97,-4.1,0,5,10
2.11,-8.32,-3.25,0,5,10
2.9,-8.72,-2.76,0,5,10
2.67,-9.5,-3.52,0,5,10
2.18,-9.36,-3.61,0,5,10
1.61,-8.52,-3.37,0,5,10
0.92,-8.05,-3.25,0,5,10
0.65,-7.87,-3.35,0,5,10
0.79,-7.19,-3.05,0,5,10
-7.67,-3.72,-4.81,1,6,1
-7.46,-2.93,-3.18,1,6,1
-6.09,-2.83,-4.03,1,6,1
-7.04,-2.77,-4.02,1,6,1
-6.11,-2.3,0.54,1,6,1
-7.19,-0.97,-0.12,0,6,1
-4.79,-4.06,-8.78,0,6,1
-3.08,-6.72,-3.28,0,6,1
-5.05,-7.59,-4.06,0,6,1
-7.06,-5.96,-3.04,0,6,1
-6.52,-4.08,-3.1,0,6,1
-6.9,-3.1,-4.54,0,6,1
-7.66,-3.49,-5.21,0,6,1
-6.81,-4.98,-4.58,0,6,1
-5.31,-6.99,-2.91,0,6,1
-5.34,-5.99,-2.73,0,6,1
-7.02,-4.89,-3.8,0,6,1
-8.46,-4.63,-5.15,0,6,1
-8.54,-5.89,-5.87,0,6,1
-9.13,-4.92,-6.1,0,6,1
-9.05,-3.92,-5.3,0,6,1
-8.77,-4.31,-4.68,0,6,1
-7.13,-5.12,-2.48,0,6,1
-7.55,-4.54,-4.24,0,6,1
-9.45,-3.88,-7.23,0,6,1
-9.11,-3.74,-5.17,0,6,1
-7.7,-4.88,-5.48,0,6,1
-4.49,-1.26,-1.85,0,6,1
1.76,-2.67,5.98,0,6,1
3.83,-6.97,2.48,0,6,1
5.28,-9.4,-3.31,0,6,1
9.68,-10.95,1.15,0,6,1
13.14,-12.26,1.31,0,6,1
7.04,-12.47,-3.45,0,6,1
7.19,-11.03,-0.13,0,6,1
13.32,-7.89,4.45,0,6,1
11.42,-8.23,3.83,0,6,1
8.82,-12.45,-0.64,0,6,1
7.41,-12.19,-4.94,0,6,1
12.38,-12.55,2.01,0,6,1
15.49,-13.38,5.49,0,6,1
11.13,-14.7,1.4,0,6,1
11.32,-13.26,2.55,0,6,1
12.63,-11.04,5.44,0,6,1
9.89,-11.42,0.85,0,6,1
7.57,-10.82,0.8,0,6,1
1.34,-9.5,0.13,0,6,1
2.56,-10.61,-0.03,0,6,1
1.97,-11.62,-1.22,0,6,1
2.92,-12.15,-2.03,0,6,1
3.93,-12.09,0.69,0,6,1
3.51,-11.67,2.15,0,6,1
0.72,-11.91,-3.13,0,6,1
-0.57,-10.12,-1.66,0,6,1
0.69,-9.2,0.26,0,6,1
0.58,-8.53,0.28,0,6,1
0.2,-9.3,0.1,0,6,1
-1.31,-9.53,-1.91,0,6,1
-1.3,-7.98,-1.24,0,6,1
0.02,-7.19,0.2,0,6,1
1.15,-8.04,0.83,0,6,1
0.77,-9.44,-1.54,0,6,1
0.2,-8.44,-2.87,0,6,1
1.42,-7.59,-0.45,0,6,1
2.92,-8.75,0.77,0,6,1
1.91,-9.59,-1.81,0,6,1
1.26,-8.7,-2.86,0,6,1
2.03,-9.01,-1.21,0,6,1
3.04,-10.02,-1.5,0,6,1
2.23,-9.88,-2.35,0,6,1
1.71,-9.12,-2.13,0,6,1
2.43,-9.69,-1.67,0,6,1
2.3,-10.66,-3.22,0,6,1
2.45,-9.81,-2.58,0,6,1
2.47,-9.91,-1.77,0,6,1
2.85,-10.67,-2.61,0,6,1
2.12,-10.09,-3.7,0,6,1
2.04,-9.26,-2.64,0,6,1
2.6,-9.24,-2.24,0,6,1
2.82,-9.59,-2.47,0,6,1
2.95,-9.75,-2.12,0,6,1
2.57,-10.1,-2.49,0,6,1
2.59,-9.58,-2.44,0,6,1
2.07,-8.85,-2.77,0,6,1
2.34,-9.17,-1.52,0,6,1
2.41,-9.53,-1.85,0,6,1
1.57,-9.2,-2.88,0,6,1
1.47,-9.16,-2.29,0,6,1
1.83,-9.15,-1.68,0,6,1
1.93,-9.32,-1.84,0,6,1
1.58,-9.57,-2.57,0,6,1
1.83,-9.62,-1.96,0,6,1
1.99,-9.53,-1.96,0,6,1
1.89,-9.51,-2.04,0,6,1
1.8,-9.37,-2.09,0,6,1
1.92,-9.37,-1.81,0,6,1
2.14,-9.65,-2.02,0,6,1
2.15,-9.6,-2.0,0,6,1
1.87,-9.54,-1.99,0,6,1
1.91,-9.48,-1.86,0,6,1
-7.19,-0.97,-0.12,0,6,2
-4.79,-4.06,-8.78,0,6,2
-3.08,-6.72,-3.28,0,6,2
-5.05,-7.59,-4.06,0,6,2
-7.06,-5.96,-3.04,0,6,2
-6.52,-4.08,-3.1,0,6,2
-6.9,-3.1,-4.54,0,6,2
-7.66,-3.49,-5.21,0,6,2
-6.81,-4.98,-4.58,0,6,2
-5.31,-6.99,-2.91,0,6,2
-5.34,-5.99,-2.73,0,6,2
-7.02,-4.89,-3.8,0,6,2
-8.46,-4.63,-5.15,0,6,2
-8.54,-5.89,-5.87,0,6,2
-9.13,-4.92,-6.1,0,6,2
-9.05,-3.92,-5.3,0,6,2
-8.77,-4.31,-4.68,0,6,2
-7.13,-5.12,-2.48,0,6,2
-7.55,-4.54,-4.24,0,6,2
-9.45,-3.88,-7.23,0,6,2
-9.11,-3.74,-5.17,0,6,2
-7.7,-4.88,-5.48,0,6,2
-4.49,-1.26,-1.85,0,6,2
1.76,-2.67,5.98,0,6,2
3.83,-6.97,2.48,0,6,2
5.28,-9.4,-3.31,0,6,2
9.68,-10.95,1.15,0,6,2
13.14,-12.26,1.31,0,6,2
7.04,-12.47,-3.45,0,6,2
7.19,-11.03,-0.13,0,6,2
13.32,-7.89,4.45,0,6,2
11.42,-8.23,3.83,0,6,2
8.82,-12.45,-0.64,0,6,2
7.41,-12.19,-4.94,0,6,2
12.38,-12.55,2.01,0,6,2
15.49,-13.38,5.49,0,6,2
11.13,-14.7,1.4,0,6,2
11.32,-13.26,2.55,0,6,2
12.63,-11.04,5.44,0,6,2
9.89,-11.42,0.85,0,6,2
7.57,-10.82,0.8,0,6,2
1.34,-9.5,0.13,0,6,2
2.56,-10.61,-0.03,0,6,2
1.97,-11.62,-1.22,0,6,2
2.92,-12.15,-2.03,0,6,2
3.93,-12.09,0.69,0,6,2
3.51,-11.67,2.15,0,6,2
0.72,-11.91,-3.13,0,6,2
-0.57,-10.12,-1.66,0,6,2
0.69,-9.2,0.26,0,6,2
0.58,-8.53,0.28,0,6,2
0.2,-9.3,0.1,0,6,2
-1.31,-9.53,-1.91,0,6,2
-1.3,-7.98,-1.24,0,6,2
0.02,-7.19,0.2,0,6,2
1.15,-8.04,0.83,0,6,2
0.77,-9.44,-1.54,0,6,2
0.2,-8.44,-2.87,0,6,2
1.42,-7.59,-0.45,0,6,2
2.92,-8.75,0.77,0,6,2
1.91,-9.59,-1.81,0,6,2
1.26,-8.7,-2.86,0,6,2
2.03,-9.01,-1.21,0,6,2
3.04,-10.02,-1.5,0,6,2
2.23,-9.88,-2.35,0,6,2
1.71,-9.12,-2.13,0,6,2
2.43,-9.69,-1.67,0,6,2
2.3,-10.66,-3.22,0,6,2
2.45,-9.81,-2.58,0,6,2
2.47,-9.91,-1.77,0,6,2
2.85,-10.67,-2.61,0,6,2
2.12,-10.09,-3.7,0,6,2
2.04,-9.26,-2.64,0,6,2
2.6,-9.24,-2.24,0,6,2
2.82,-9.59,-2.47,0,6,2
2.95,-9.75,-2.12,0,6,2
2.57,-10.1,-2.49,0,6,2
2.59,-9.58,-2.44,0,6,2
2.07,-8.85,-2.77,0,6,2
2.34,-9.17,-1.52,0,6,2
2.41,-9.53,-1.85,0,6,2
1.57,-9.2,-2.88,0,6,2
1.47,-9.16,-2.29,0,6,2
1.83,-9.15,-1.68,0,6,2
1.93,-9.32,-1.84,0,6,2
1.58,-9.57,-2.57,0,6,2
1.83,-9.62,-1.96,0,6,2
1.99,-9.53,-1.96,0,6,2
1.89,-9.51,-2.04,0,6,2
1.8,-9.37,-2.09,0,6,2
1.92,-9.37,-1.81,0,6,2
2.14,-9.65,-2.02,0,6,2
2.15,-9.6,-2.0,0,6,2
1.87,-9.54,-1.99,0,6,2
1.91,-9.48,-1.86,0,6,2
1.87,-9.39,-2.38,0,6,2
1.74,-9.19,-2.25,0,6,2
2.11,-9.56,-1.74,0,6,2
2.16,-9.85,-2.04,0,6,2
1.83,-9.36,-2.6,0,6,2
-6.52,-4.08,-3.1,0,6,3
-6.9,-3.1,-4.54,0,6,3
-7.66,-3.49,-5.21,0,6,3
-6.81,-4.98,-4.58,0,6,3
-5.31,-6.99,-2.91,0,6,3
-5.34,-5.99,-2.73,0,6,3
-7.02,-4.89,-3.8,0,6,3
-8.46,-4.63,-5.15,0,6,3
-8.54,-5.89,-5.87,0,6,3
-9.13,-4.92,-6.1,0,6,3
-9.05,-3.92,-5.3,0,6,3
-8.77,-4.31,-4.68,0,6,3
-7.13,-5.12,-2.48,0,6,3
-7.55,-4.54,-4.24,0,6,3
-9.45,-3.88,-7.23,0,6,3
-9.11,-3.74,-5.17,0,6,3
-7.7,-4.88,-5.48,0,6,3
-4.49,-1.26,-1.85,0,6,3
1.76,-2.67,5.98,0,6,3
3.83,-6.97,2.48,0,6,3
5.28,-9.4,-3.31,0,6,3
9.68,-10.95,1.15,0,6,3
13.14,-12.26,1.31,0,6,3
7.04,-12.47,-3.45,0,6,3
7.19,-11.03,-0.13,0,6,3
13.32,-7.89,4.45,0,6,3
11.42,-8.23,3.83,0,6,3
8.82,-12.45,-0.64,0,6,3
7.41,-12.19,-4.94,0,6,3
12.38,-12.55,2.01,0,6,3
15.49,-13.38,5.49,0,6,3
