Accel_X,Accel_Y,Accel_Z,Fall_Indicator,Label,Event_ID,Window_Number
-8.18,-2.1,-4.91,0,0,1,1
-8.22,-2.12,-4.98,0,0,1,1
-8.18,-2.23,-5.02,0,0,1,1
-8.22,-2.22,-4.96,0,0,1,1
-8.17,-2.2,-4.92,0,0,1,1
-8.2,-2.28,-4.9,0,0,1,1
-8.19,-2.21,-4.95,0,0,1,1
-8.21,-2.21,-4.93,0,0,1,1
-8.23,-2.21,-4.93,0,0,1,1
-8.2,-2.21,-4.95,0,0,1,1
-8.15,-2.27,-4.94,0,0,1,1
-8.2,-2.23,-4.93,0,0,1,1
-8.17,-2.25,-4.94,0,0,1,1
-8.14,-2.22,-4.88,0,0,1,1
-8.17,-2.28,-4.9,0,0,1,1
-8.27,-2.23,-4.96,0,0,1,1
-8.28,-2.17,-4.82,0,0,1,1
-8.26,-2.22,-4.87,0,0,1,1
-8.25,-2.21,-4.82,0,0,1,1
-8.28,-2.07,-4.82,0,0,1,1
-8.32,-2.11,-4.84,0,0,1,1
-8.15,-2.21,-4.75,0,0,1,1
-8.13,-2.3,-4.7,0,0,1,1
-8.14,-2.42,-4.77,0,0,1,1
-8.17,-2.38,-4.88,0,0,1,1
-8.27,-2.28,-4.93,0,0,1,1
-8.22,-2.23,-4.93,0,0,1,1
-8.25,-2.1,-4.76,0,0,1,1
-8.37,-1.96,-4.89,0,0,1,1
-8.27,-2.05,-4.96,0,0,1,1
-8.19,-2.17,-4.88,0,0,1,1
-8.3,-1.97,-4.96,0,0,1,1
-8.41,-1.74,-5.02,0,0,1,1
-8.42,-1.61,-4.88,0,0,1,1
-8.38,-1.41,-4.92,0,0,1,1
-8.48,-1.48,-4.98,0,0,1,1
-8.32,-1.84,-4.91,0,0,1,1
-8.12,-2.22,-4.72,0,0,1,1
-8.11,-2.14,-4.79,0,0,1,1
-8.3,-1.74,-5.04,0,0,1,1
-8.52,-1.4,-5.02,0,0,1,1
-8.42,-1.4,-4.9,0,0,1,1
-8.27,-1.88,-4.84,0,0,1,1
-8.15,-2.22,-4.8,0,0,1,1
-8.1,-2.15,-4.85,0,0,1,1
-8.08,-1.94,-4.84,0,0,1,1
-8.25,-1.61,-4.59,0,0,1,1
-8.45,-1.54,-5.03,0,0,1,1
-8.44,-1.58,-5.14,0,0,1,1
-8.44,-1.51,-4.95,0,0,1,1
-8.28,-1.41,-4.76,0,0,1,1
-8.13,-1.3,-4.71,0,0,1,1
-8.22,-1.16,-4.97,0,0,1,1
-8.42,-1.28,-5.16,0,0,1,1
-8.33,-1.47,-5.24,0,0,1,1
-8.15,-1.71,-5.13,0,0,1,1
-8.0,-1.72,-5.12,0,0,1,1
-8.17,-1.64,-5.27,0,0,1,1
-8.12,-1.73,-5.26,0,0,1,1
-8.06,-1.89,-5.21,0,0,1,1
-7.94,-2.02,-5.24,0,0,1,1
-7.79,-2.04,-5.38,0,0,1,1
-7.78,-2.02,-5.49,0,0,1,1
-7.96,-1.85,-5.59,0,0,1,1
-7.8,-1.92,-5.55,0,0,1,1
-7.95,-1.54,-5.56,0,0,1,1
-7.81,-1.05,-5.46,0,0,1,1
-7.63,-1.16,-5.7,0,0,1,1
-7.67,-1.34,-6.16,0,0,1,1
-7.86,-1.15,-6.49,0,0,1,1
-7.84,-0.53,-6.53,0,0,1,1
-7.89,-0.25,-6.56,0,0,1,1
-7.99,-0.2,-6.56,0,0,1,1
-7.97,-0.3,-6.38,0,0,1,1
-8.02,-0.21,-6.13,0,0,1,1
-8.01,0.22,-6.26,0,0,1,1
-8.1,0.69,-6.33,0,0,1,1
-8.15,0.75,-6.28,0,0,1,1
-8.0,0.51,-6.16,0,0,1,1
-7.69,0.11,-6.25,0,0,1,1
-7.6,-0.59,-6.26,0,0,1,1
-7.43,-0.87,-6.41,0,0,1,1
-7.58,-0.85,-6.56,0,0,1,1
-7.97,-0.72,-6.71,0,0,1,1
-8.01,-0.15,-6.64,0,0,1,1
-7.89,0.17,-6.43,0,0,1,1
-7.67,0.12,-6.1,0,0,1,1
-7.33,-0.17,-5.68,0,0,1,1
-7.34,-0.68,-5.97,0,0,1,1
-7.43,-0.81,-6.67,0,0,1,1
-7.46,-0.88,-7.07,0,0,1,1
-7.83,-1.56,-7.02,0,0,1,1
-7.71,-1.7,-6.19,0,0,1,1
-7.87,-1.44,-5.64,0,0,1,1
-7.73,-1.08,-5.2,0,0,1,1
-7.94,-1.58,-6.04,0,0,1,1
-8.07,-1.77,-5.88,0,0,1,1
-8.34,-1.87,-5.26,0,0,1,1
-8.29,-1.58,-4.38,0,0,1,1
-7.67,-0.19,-3.46,0,0,1,1
-8.28,-1.41,-4.76,0,0,1,2
-8.13,-1.3,-4.71,0,0,1,2
-8.22,-1.16,-4.97,0,0,1,2
-8.42,-1.28,-5.16,0,0,1,2
-8.33,-1.47,-5.24,0,0,1,2
-8.15,-1.71,-5.13,0,0,1,2
-8.0,-1.72,-5.12,0,0,1,2
-8.17,-1.64,-5.27,0,0,1,2
-8.12,-1.73,-5.26,0,0,1,2
-8.06,-1.89,-5.21,0,0,1,2
-7.94,-2.02,-5.24,0,0,1,2
-7.79,-2.04,-5.38,0,0,1,2
-7.78,-2.02,-5.49,0,0,1,2
-7.96,-1.85,-5.59,0,0,1,2
-7.8,-1.92,-5.55,0,0,1,2
-7.95,-1.54,-5.56,0,0,1,2
-7.81,-1.05,-5.46,0,0,1,2
-7.63,-1.16,-5.7,0,0,1,2
-7.67,-1.34,-6.16,0,0,1,2
-7.86,-1.15,-6.49,0,0,1,2
-7.84,-0.53,-6.53,0,0,1,2
-7.89,-0.25,-6.56,0,0,1,2
-7.99,-0.2,-6.56,0,0,1,2
-7.97,-0.3,-6.38,0,0,1,2
-8.02,-0.21,-6.13,0,0,1,2
-8.01,0.22,-6.26,0,0,1,2
-8.1,0.69,-6.33,0,0,1,2
-8.15,0.75,-6.28,0,0,1,2
-8.0,0.51,-6.16,0,0,1,2
-7.69,0.11,-6.25,0,0,1,2
-7.6,-0.59,-6.26,0,0,1,2
-7.43,-0.87,-6.41,0,0,1,2
-7.58,-0.85,-6.56,0,0,1,2
-7.97,-0.72,-6.71,0,0,1,2
-8.01,-0.15,-6.64,0,0,1,2
-7.89,0.17,-6.43,0,0,1,2
-7.67,0.12,-6.1,0,0,1,2
-7.33,-0.17,-5.68,0,0,1,2
-7.34,-0.68,-5.97,0,0,1,2
-7.43,-0.81,-6.67,0,0,1,2
-7.46,-0.88,-7.07,0,0,1,2
-7.83,-1.56,-7.02,0,0,1,2
-7.71,-1.7,-6.19,0,0,1,2
-7.87,-1.44,-5.64,0,0,1,2
-7.73,-1.08,-5.2,0,0,1,2
-7.94,-1.58,-6.04,0,0,1,2
-8.07,-1.77,-5.88,0,0,1,2
-8.34,-1.87,-5.26,0,0,1,2
-8.29,-1.58,-4.38,0,0,1,2
-7.67,-0.19,-3.46,0,0,1,2
-7.89,-0.2,-4.64,0,0,1,2
-8.71,-0.84,-6.9,0,0,1,2
-8.4,-0.85,-6.49,0,0,1,2
-8.15,0.55,-4.51,0,0,1,2
-8.84,1.67,-3.28,0,0,1,2
-9.78,2.01,-4.03,0,0,1,2
-11.06,1.74,-5.85,0,0,1,2
-10.98,1.71,-7.23,0,0,1,2
-10.27,1.77,-6.38,0,0,1,2
-8.89,2.05,-4.02,0,0,1,2
-8.47,2.01,-2.14,0,0,1,2
-8.2,1.98,-2.42,0,0,1,2
-9.07,1.32,-3.79,0,0,1,2
-8.89,0.84,-4.2,0,0,1,2
-7.77,0.51,-3.52,0,0,1,2
-8.15,0.6,-2.46,0,0,1,2
-8.29,0.68,-2.33,0,0,1,2
-8.21,0.44,-3.1,0,0,1,2
-8.18,0.1,-3.76,0,0,1,2
-8.42,0.55,-3.88,0,0,1,2
-8.43,1.55,-3.69,0,0,1,2
-8.49,2.42,-3.64,0,0,1,2
-8.81,2.88,-4.03,0,0,1,2
-8.9,2.85,-4.32,0,0,1,2
-8.7,2.24,-4.44,0,0,1,2
-8.63,1.34,-4.52,0,0,1,2
-8.81,0.56,-4.21,0,0,1,2
-8.95,0.14,-3.99,0,0,1,2
-8.65,0.5,-3.65,0,0,1,2
-8.54,1.11,-3.61,0,0,1,2
-8.65,1.77,-3.93,0,0,1,2
-8.79,1.68,-4.54,0,0,1,2
-9.01,1.31,-4.71,0,0,1,2
-8.75,1.02,-4.49,0,0,1,2
-8.35,0.72,-3.68,0,0,1,2
-7.98,0.34,-3.26,0,0,1,2
-8.35,0.01,-3.49,0,0,1,2
-8.2,0.35,-3.83,0,0,1,2
-8.57,0.77,-4.03,0,0,1,2
-8.7,1.02,-4.12,0,0,1,2
-8.39,1.34,-4.02,0,0,1,2
-8.01,2.05,-3.83,0,0,1,2
-8.3,2.68,-3.78,0,0,1,2
-8.45,3.15,-4.47,0,0,1,2
-8.75,3.01,-5.03,0,0,1,2
-8.63,2.63,-5.24,0,0,1,2
-6.93,2.81,-5.0,0,0,1,2
-6.39,2.62,-4.07,0,0,1,2
-12.97,-1.59,-5.07,0,0,1,2
-14.73,-3.58,-12.0,0,0,1,2
-7.89,-0.2,-4.64,0,0,1,3
-8.71,-0.84,-6.9,0,0,1,3
-8.4,-0.85,-6.49,0,0,1,3
-8.15,0.55,-4.51,0,0,1,3
-8.84,1.67,-3.28,0,0,1,3
-9.78,2.01,-4.03,0,0,1,3
-11.06,1.74,-5.85,0,0,1,3
-10.98,1.71,-7.23,0,0,1,3
-10.27,1.77,-6.38,0,0,1,3
-8.89,2.05,-4.02,0,0,1,3
-8.47,2.01,-2.14,0,0,1,3
-8.2,1.98,-2.42,0,0,1,3
-9.07,1.32,-3.79,0,0,1,3
-8.89,0.84,-4.2,0,0,1,3
-7.77,0.51,-3.52,0,0,1,3
-8.15,0.6,-2.46,0,0,1,3
-8.29,0.68,-2.33,0,0,1,3
-8.21,0.44,-3.1,0,0,1,3
-8.18,0.1,-3.76,0,0,1,3
-8.42,0.55,-3.88,0,0,1,3
-8.43,1.55,-3.69,0,0,1,3
-8.49,2.42,-3.64,0,0,1,3
-8.81,2.88,-4.03,0,0,1,3
-8.9,2.85,-4.32,0,0,1,3
-8.7,2.24,-4.44,0,0,1,3
-8.63,1.34,-4.52,0,0,1,3
-8.81,0.56,-4.21,0,0,1,3
-8.95,0.14,-3.99,0,0,1,3
-8.65,0.5,-3.65,0,0,1,3
-8.54,1.11,-3.61,0,0,1,3
-8.65,1.77,-3.93,0,0,1,3
-8.79,1.68,-4.54,0,0,1,3
-9.01,1.31,-4.71,0,0,1,3
-8.75,1.02,-4.49,0,0,1,3
-8.35,0.72,-3.68,0,0,1,3
-7.98,0.34,-3.26,0,0,1,3
-8.35,0.01,-3.49,0,0,1,3
-8.2,0.35,-3.83,0,0,1,3
-8.57,0.77,-4.03,0,0,1,3
-8.7,1.02,-4.12,0,0,1,3
-8.39,1.34,-4.02,0,0,1,3
-8.01,2.05,-3.83,0,0,1,3
-8.3,2.68,-3.78,0,0,1,3
-8.45,3.15,-4.47,0,0,1,3
-8.75,3.01,-5.03,0,0,1,3
-8.63,2.63,-5.24,0,0,1,3
-6.93,2.81,-5.0,0,0,1,3
-6.39,2.62,-4.07,0,0,1,3
-12.97,-1.59,-5.07,0,0,1,3
-14.73,-3.58,-12.0,0,0,1,3
-11.97,-6.7,-11.56,0,0,1,3
-6.72,-3.18,-2.42,0,0,1,3
-6.22,0.86,0.64,0,0,1,3
-7.56,4.17,-1.08,0,0,1,3
-8.46,2.07,-2.87,0,0,1,3
-9.0,-2.65,-5.56,0,0,1,3
-9.79,-5.19,-7.71,0,0,1,3
-8.65,-3.18,-6.04,0,0,1,3
-7.1,-0.43,-3.76,0,0,1,3
-7.32,1.03,-3.17,0,0,1,3
-8.22,0.58,-4.63,0,0,1,3
-8.74,-0.97,-6.45,0,0,1,3
-8.16,-1.32,-6.71,0,0,1,3
-8.01,-1.61,-6.23,0,0,1,3
-7.93,-1.03,-5.42,0,0,1,3
-7.58,-0.28,-4.77,0,0,1,3
-7.64,0.31,-4.86,0,0,1,3
-7.84,0.76,-5.34,0,0,1,3
-8.05,0.72,-5.42,0,0,1,3
-7.56,0.72,-5.13,0,0,1,3
-7.06,0.94,-4.69,0,0,1,3
-6.64,1.17,-4.71,0,0,1,3
-7.35,1.17,-5.25,0,0,1,3
-8.03,1.12,-5.88,0,0,1,3
-9.03,0.81,-6.44,0,0,1,3
-8.92,1.41,-6.39,0,0,1,3
-8.38,1.13,-5.9,0,0,1,3
-7.31,0.19,-5.75,0,0,1,3
-8.39,-0.39,-4.72,0,0,1,3
-7.24,0.13,-4.19,0,0,1,3
-9.82,2.07,-4.56,0,0,1,3
-11.24,4.62,-5.78,0,0,1,3
-12.06,4.03,-9.19,0,0,1,3
-12.03,0.25,-11.75,0,0,1,3
-10.51,-1.06,-10.28,0,0,1,3
-8.26,-0.87,-6.3,0,0,1,3
-6.21,-0.74,-2.7,0,0,1,3
-5.24,-1.76,0.65,0,0,1,3
-4.94,-3.1,1.31,0,0,1,3
-6.31,-2.8,-1.98,0,0,1,3
-9.93,-1.9,-4.9,0,0,1,3
-11.82,1.26,-7.2,0,0,1,3
-12.33,3.2,-7.55,0,0,1,3
-10.47,3.27,-5.6,0,0,1,3
-8.22,2.18,-3.02,0,0,1,3
-7.07,0.82,-1.36,0,0,1,3
-6.81,0.16,-2.43,0,0,1,3
-8.12,0.11,-3.85,0,0,1,3
-8.62,0.48,-4.31,0,0,1,3
-8.36,0.5,-3.76,0,0,1,3
-11.97,-6.7,-11.56,0,0,1,4
-6.72,-3.18,-2.42,0,0,1,4
-6.22,0.86,0.64,0,0,1,4
-7.56,4.17,-1.08,0,0,1,4
-8.46,2.07,-2.87,0,0,1,4
-9.0,-2.65,-5.56,0,0,1,4
-9.79,-5.19,-7.71,0,0,1,4
-8.65,-3.18,-6.04,0,0,1,4
-7.1,-0.43,-3.76,0,0,1,4
-7.32,1.03,-3.17,0,0,1,4
-8.22,0.58,-4.63,0,0,1,4
-8.74,-0.97,-6.45,0,0,1,4
-8.16,-1.32,-6.71,0,0,1,4
-8.01,-1.61,-6.23,0,0,1,4
-7.93,-1.03,-5.42,0,0,1,4
-7.58,-0.28,-4.77,0,0,1,4
-7.64,0.31,-4.86,0,0,1,4
-7.84,0.76,-5.34,0,0,1,4
-8.05,0.72,-5.42,0,0,1,4
-7.56,0.72,-5.13,0,0,1,4
-7.06,0.94,-4.69,0,0,1,4
-6.64,1.17,-4.71,0,0,1,4
-7.35,1.17,-5.25,0,0,1,4
-8.03,1.12,-5.88,0,0,1,4
-9.03,0.81,-6.44,0,0,1,4
-8.92,1.41,-6.39,0,0,1,4
-8.38,1.13,-5.9,0,0,1,4
-7.31,0.19,-5.75,0,0,1,4
-8.39,-0.39,-4.72,0,0,1,4
-7.24,0.13,-4.19,0,0,1,4
-9.82,2.07,-4.56,0,0,1,4
-11.24,4.62,-5.78,0,0,1,4
-12.06,4.03,-9.19,0,0,1,4
-12.03,0.25,-11.75,0,0,1,4
-10.51,-1.06,-10.28,0,0,1,4
-8.26,-0.87,-6.3,0,0,1,4
-6.21,-0.74,-2.7,0,0,1,4
-5.24,-1.76,0.65,0,0,1,4
-4.94,-3.1,1.31,0,0,1,4
-6.31,-2.8,-1.98,0,0,1,4
-9.93,-1.9,-4.9,0,0,1,4
-11.82,1.26,-7.2,0,0,1,4
-12.33,3.2,-7.55,0,0,1,4
-10.47,3.27,-5.6,0,0,1,4
-8.22,2.18,-3.02,0,0,1,4
-7.07,0.82,-1.36,0,0,1,4
-6.81,0.16,-2.43,0,0,1,4
-8.12,0.11,-3.85,0,0,1,4
-8.62,0.48,-4.31,0,0,1,4
-8.36,0.5,-3.76,0,0,1,4
-7.98,0.21,-3.08,0,0,1,4
-7.54,0.44,-3.06,0,0,1,4
-7.43,1.04,-3.22,0,0,1,4
-7.38,1.7,-3.63,0,0,1,4
-8.23,1.64,-3.83,0,0,1,4
-8.98,1.56,-4.43,0,0,1,4
-8.79,1.7,-4.89,0,0,1,4
-8.46,1.68,-4.4,0,0,1,4
-8.28,2.28,-3.53,0,0,1,4
-7.95,3.32,-3.24,0,0,1,4
-8.07,4.68,-3.34,0,0,1,4
-8.26,5.52,-3.6,0,0,1,4
-14.23,2.39,-3.38,0,0,1,4
-12.48,1.06,-9.29,0,0,1,4
-13.02,-3.33,-10.42,0,0,1,4
-9.61,-5.38,-6.45,0,0,1,4
-8.21,-2.4,-0.4,0,0,1,4
-8.16,1.82,0.17,0,0,1,4
-8.34,2.16,-3.31,0,0,1,4
-8.64,-1.15,-6.48,0,0,1,4
-7.95,-3.06,-7.29,0,0,1,4
-7.56,-2.9,-6.07,0,0,1,4
-7.46,-1.52,-4.04,0,0,1,4
-7.22,-1.39,-3.25,0,0,1,4
-7.24,-1.29,-3.42,0,0,1,4
-7.56,-0.06,-4.1,0,0,1,4
-8.53,1.22,-5.22,0,0,1,4
-8.88,1.6,-6.22,0,0,1,4
-8.99,1.54,-6.74,0,0,1,4
-8.9,1.09,-6.19,0,0,1,4
-7.87,0.99,-4.84,0,0,1,4
-7.37,1.41,-4.11,0,0,1,4
-7.44,2.04,-4.17,0,0,1,4
-7.78,2.61,-4.79,0,0,1,4
-7.83,3.12,-5.37,0,0,1,4
-7.7,3.19,-5.06,0,0,1,4
-7.3,2.73,-4.39,0,0,1,4
-7.54,1.34,-4.79,0,0,1,4
-8.58,-0.49,-5.46,0,0,1,4
-9.2,-1.15,-5.51,0,0,1,4
-8.55,-0.21,-5.02,0,0,1,4
-8.41,0.86,-4.35,0,0,1,4
-8.0,1.09,-4.43,0,0,1,4
-9.32,0.37,-4.21,0,0,1,4
-7.74,0.29,-2.81,0,0,1,4
-7.73,2.42,-3.05,0,0,1,4
-10.46,4.49,-5.13,0,0,1,4
-12.58,2.28,-8.53,0,0,1,4
-11.23,-1.74,-10.0,0,0,1,4
-11.53,-2.26,-9.86,0,0,1,4
-7.98,0.21,-3.08,0,0,1,5
-7.54,0.44,-3.06,0,0,1,5
-7.43,1.04,-3.22,0,0,1,5
-7.38,1.7,-3.63,0,0,1,5
-8.23,1.64,-3.83,0,0,1,5
-8.98,1.56,-4.43,0,0,1,5
-8.79,1.7,-4.89,0,0,1,5
-8.46,1.68,-4.4,0,0,1,5
-8.28,2.28,-3.53,0,0,1,5
-7.95,3.32,-3.24,0,0,1,5
-8.07,4.68,-3.34,0,0,1,5
-8.26,5.52,-3.6,0,0,1,5
-14.23,2.39,-3.38,0,0,1,5
-12.48,1.06,-9.29,0,0,1,5
-13.02,-3.33,-10.42,0,0,1,5
-9.61,-5.38,-6.45,0,0,1,5
-8.21,-2.4,-0.4,0,0,1,5
-8.16,1.82,0.17,0,0,1,5
-8.34,2.16,-3.31,0,0,1,5
-8.64,-1.15,-6.48,0,0,1,5
-7.95,-3.06,-7.29,0,0,1,5
-7.56,-2.9,-6.07,0,0,1,5
-7.46,-1.52,-4.04,0,0,1,5
-7.22,-1.39,-3.25,0,0,1,5
-7.24,-1.29,-3.42,0,0,1,5
-7.56,-0.06,-4.1,0,0,1,5
-8.53,1.22,-5.22,0,0,1,5
-8.88,1.6,-6.22,0,0,1,5
-8.99,1.54,-6.74,0,0,1,5
-8.9,1.09,-6.19,0,0,1,5
-7.87,0.99,-4.84,0,0,1,5
-7.37,1.41,-4.11,0,0,1,5
-7.44,2.04,-4.17,0,0,1,5
-7.78,2.61,-4.79,0,0,1,5
-7.83,3.12,-5.37,0,0,1,5
-7.7,3.19,-5.06,0,0,1,5
-7.3,2.73,-4.39,0,0,1,5
-7.54,1.34,-4.79,0,0,1,5
-8.58,-0.49,-5.46,0,0,1,5
-9.2,-1.15,-5.51,0,0,1,5
-8.55,-0.21,-5.02,0,0,1,5
-8.41,0.86,-4.35,0,0,1,5
-8.0,1.09,-4.43,0,0,1,5
-9.32,0.37,-4.21,0,0,1,5
-7.74,0.29,-2.81,0,0,1,5
-7.73,2.42,-3.05,0,0,1,5
-10.46,4.49,-5.13,0,0,1,5
-12.58,2.28,-8.53,0,0,1,5
-11.23,-1.74,-10.0,0,0,1,5
-11.53,-2.26,-9.86,0,0,1,5
-10.7,-0.49,-8.08,0,0,1,5
-9.1,0.7,-6.01,0,0,1,5
-6.68,1.58,-3.6,0,0,1,5
-6.23,6.0,-1.51,0,0,1,5
-6.36,7.39,3.59,0,0,1,5
-4.27,-0.04,0.59,0,0,1,5
-7.38,-3.37,-6.74,0,0,1,5
-11.69,-0.39,-10.05,0,0,1,5
-12.5,2.98,-8.43,0,0,1,5
-10.28,4.24,-4.66,0,0,1,5
-8.02,4.3,-1.19,0,0,1,5
-6.27,3.07,-0.36,0,0,1,5
-6.86,1.75,-2.87,0,0,1,5
-7.91,1.49,-3.94,0,0,1,5
-8.01,1.71,-3.94,0,0,1,5
-7.34,2.01,-2.5,0,0,1,5
-6.53,2.69,-1.53,0,0,1,5
-6.89,3.27,-2.35,0,0,1,5
-7.53,3.3,-3.92,0,0,1,5
-7.81,3.28,-4.57,0,0,1,5
-7.8,3.34,-4.55,0,0,1,5
-8.13,3.05,-4.13,0,0,1,5
-8.55,3.61,-3.91,0,0,1,5
-8.42,4.83,-3.74,0,0,1,5
-7.78,5.66,-3.65,0,0,1,5
-9.06,5.7,-3.38,0,0,1,5
-12.72,4.89,-7.95,0,0,1,5
-14.52,0.86,-11.77,0,0,1,5
-11.37,-1.96,-7.82,0,0,1,5
-8.16,-2.88,0.16,0,0,1,5
-6.21,-0.44,1.1,0,0,1,5
-6.52,2.63,-1.65,0,0,1,5
-7.98,2.7,-5.04,0,0,1,5
-8.92,1.14,-7.35,0,0,1,5
-9.02,0.25,-7.55,0,0,1,5
-8.43,0.58,-6.7,0,0,1,5
-7.41,0.55,-4.29,0,0,1,5
-6.86,-0.08,-2.4,0,0,1,5
-6.48,1.47,-2.71,0,0,1,5
-7.36,2.8,-4.96,0,0,1,5
-8.22,3.06,-6.43,0,0,1,5
-9.03,2.24,-7.03,0,0,1,5
-9.06,1.12,-6.6,0,0,1,5
-8.12,0.24,-5.32,0,0,1,5
-7.53,0.57,-4.31,0,0,1,5
-7.56,1.89,-4.12,0,0,1,5
-7.9,2.96,-4.89,0,0,1,5
-8.03,3.5,-5.66,0,0,1,5
-7.86,3.57,-5.65,0,0,1,5
-7.4,3.41,-5.06,0,0,1,5
-10.7,-0.49,-8.08,0,0,1,6
-9.1,0.7,-6.01,0,0,1,6
-6.68,1.58,-3.6,0,0,1,6
-6.23,6.0,-1.51,0,0,1,6
-6.36,7.39,3.59,0,0,1,6
-4.27,-0.04,0.59,0,0,1,6
-7.38,-3.37,-6.74,0,0,1,6
-11.69,-0.39,-10.05,0,0,1,6
-12.5,2.98,-8.43,0,0,1,6
-10.28,4.24,-4.66,0,0,1,6
-8.02,4.3,-1.19,0,0,1,6
-6.27,3.07,-0.36,0,0,1,6
-6.86,1.75,-2.87,0,0,1,6
-7.91,1.49,-3.94,0,0,1,6
-8.01,1.71,-3.94,0,0,1,6
-7.34,2.01,-2.5,0,0,1,6
-6.53,2.69,-1.53,0,0,1,6
-6.89,3.27,-2.35,0,0,1,6
-7.53,3.3,-3.92,0,0,1,6
-7.81,3.28,-4.57,0,0,1,6
-7.8,3.34,-4.55,0,0,1,6
-8.13,3.05,-4.13,0,0,1,6
-8.55,3.61,-3.91,0,0,1,6
-8.42,4.83,-3.74,0,0,1,6
-7.78,5.66,-3.65,0,0,1,6
-9.06,5.7,-3.38,0,0,1,6
-12.72,4.89,-7.95,0,0,1,6
-14.52,0.86,-11.77,0,0,1,6
-11.37,-1.96,-7.82,0,0,1,6
-8.16,-2.88,0.16,0,0,1,6
-6.21,-0.44,1.1,0,0,1,6
-6.52,2.63,-1.65,0,0,1,6
-7.98,2.7,-5.04,0,0,1,6
-8.92,1.14,-7.35,0,0,1,6
-9.02,0.25,-7.55,0,0,1,6
-8.43,0.58,-6.7,0,0,1,6
-7.41,0.55,-4.29,0,0,1,6
-6.86,-0.08,-2.4,0,0,1,6
-6.48,1.47,-2.71,0,0,1,6
-7.36,2.8,-4.96,0,0,1,6
-8.22,3.06,-6.43,0,0,1,6
-9.03,2.24,-7.03,0,0,1,6
-9.06,1.12,-6.6,0,0,1,6
-8.12,0.24,-5.32,0,0,1,6
-7.53,0.57,-4.31,0,0,1,6
-7.56,1.89,-4.12,0,0,1,6
-7.9,2.96,-4.89,0,0,1,6
-8.03,3.5,-5.66,0,0,1,6
-7.86,3.57,-5.65,0,0,1,6
-7.4,3.41,-5.06,0,0,1,6
-7.11,3.06,-4.42,0,0,1,6
-6.94,2.59,-4.39,0,0,1,6
-7.12,2.08,-4.51,0,0,1,6
-7.59,1.9,-4.82,0,0,1,6
-8.87,2.02,-4.82,0,0,1,6
-8.02,2.88,-4.9,0,0,1,6
-8.32,3.32,-4.42,0,0,1,6
-8.02,2.02,-5.26,0,0,1,6
-7.63,1.54,-3.76,0,0,1,6
-7.08,1.83,-4.01,0,0,1,6
-8.86,4.12,-5.45,0,0,1,6
-11.13,6.77,-6.56,0,0,1,6
-11.6,5.99,-9.32,0,0,1,6
-11.69,2.39,-11.38,0,0,1,6
-10.19,0.46,-9.29,0,0,1,6
-7.52,-0.19,-4.77,0,0,1,6
-5.45,-1.34,-0.45,0,0,1,6
-3.51,-2.54,2.62,0,0,1,6
-4.28,-2.78,0.68,0,0,1,6
-7.22,-1.79,-3.11,0,0,1,6
-10.08,1.56,-6.25,0,0,1,6
-12.24,5.15,-8.27,0,0,1,6
-12.84,5.94,-8.84,0,0,1,6
-10.05,4.66,-5.79,0,0,1,6
-6.98,3.28,-1.44,0,0,1,6
-5.74,1.77,0.14,0,0,1,6
-7.44,1.15,-2.44,0,0,1,6
-8.7,1.35,-4.87,0,0,1,6
-9.73,1.84,-5.91,0,0,1,6
-9.28,2.17,-5.01,0,0,1,6
-7.71,2.84,-3.27,0,0,1,6
-6.09,2.97,-2.4,0,0,1,6
-5.96,3.22,-3.54,0,0,1,6
-7.36,3.81,-4.54,0,0,1,6
-7.38,4.36,-3.96,0,0,1,6
-6.11,4.38,-3.97,0,0,1,6
-6.64,3.62,-4.06,0,0,1,6
-7.03,3.56,-4.55,0,0,1,6
-8.26,4.23,-4.71,0,0,1,6
-11.11,4.02,-7.9,0,0,1,6
-12.29,1.93,-10.47,0,0,1,6
-13.41,-0.69,-9.16,0,0,1,6
-9.42,-0.7,-4.76,0,0,1,6
-6.5,0.89,-1.0,0,0,1,6
-8.19,3.05,-1.89,0,0,1,6
-9.0,2.48,-4.41,0,0,1,6
-8.73,0.75,-6.02,0,0,1,6
-7.92,-1.19,-6.24,0,0,1,6
-6.56,-0.77,-5.3,0,0,1,6
-6.37,0.57,-4.74,0,0,1,6
-7.11,3.06,-4.42,0,0,1,7
-6.94,2.59,-4.39,0,0,1,7
-7.12,2.08,-4.51,0,0,1,7
-7.59,1.9,-4.82,0,0,1,7
-8.87,2.02,-4.82,0,0,1,7
-8.02,2.88,-4.9,0,0,1,7
-8.32,3.32,-4.42,0,0,1,7
-8.02,2.02,-5.26,0,0,1,7
-7.63,1.54,-3.76,0,0,1,7
-7.08,1.83,-4.01,0,0,1,7
-8.86,4.12,-5.45,0,0,1,7
-11.13,6.77,-6.56,0,0,1,7
-11.6,5.99,-9.32,0,0,1,7
-11.69,2.39,-11.38,0,0,1,7
-10.19,0.46,-9.29,0,0,1,7
-7.52,-0.19,-4.77,0,0,1,7
-5.45,-1.34,-0.45,0,0,1,7
-3.51,-2.54,2.62,0,0,1,7
-4.28,-2.78,0.68,0,0,1,7
-7.22,-1.79,-3.11,0,0,1,7
-10.08,1.56,-6.25,0,0,1,7
-12.24,5.15,-8.27,0,0,1,7
-12.84,5.94,-8.84,0,0,1,7
-10.05,4.66,-5.79,0,0,1,7
-6.98,3.28,-1.44,0,0,1,7
-5.74,1.77,0.14,0,0,1,7
-7.44,1.15,-2.44,0,0,1,7
-8.7,1.35,-4.87,0,0,1,7
-9.73,1.84,-5.91,0,0,1,7
-9.28,2.17,-5.01,0,0,1,7
-7.71,2.84,-3.27,0,0,1,7
-6.09,2.97,-2.4,0,0,1,7
-5.96,3.22,-3.54,0,0,1,7
-7.36,3.81,-4.54,0,0,1,7
-7.38,4.36,-3.96,0,0,1,7
-6.11,4.38,-3.97,0,0,1,7
-6.64,3.62,-4.06,0,0,1,7
-7.03,3.56,-4.55,0,0,1,7
-8.26,4.23,-4.71,0,0,1,7
-11.11,4.02,-7.9,0,0,1,7
-12.29,1.93,-10.47,0,0,1,7
-13.41,-0.69,-9.16,0,0,1,7
-9.42,-0.7,-4.76,0,0,1,7
-6.5,0.89,-1.0,0,0,1,7
-8.19,3.05,-1.89,0,0,1,7
-9.0,2.48,-4.41,0,0,1,7
-8.73,0.75,-6.02,0,0,1,7
-7.92,-1.19,-6.24,0,0,1,7
-6.56,-0.77,-5.3,0,0,1,7
-6.37,0.57,-4.74,0,0,1,7
-7.69,1.91,-5.25,0,0,1,7
-8.31,2.55,-6.21,0,0,1,7
-7.78,2.05,-6.26,0,0,1,7
-7.29,1.33,-6.26,0,0,1,7
-6.88,0.46,-6.15,0,0,1,7
-6.92,0.46,-6.51,0,0,1,7
-7.07,0.78,-7.2,0,0,1,7
-7.03,1.08,-7.22,0,0,1,7
-6.95,0.77,-7.0,0,0,1,7
-7.43,0.94,-6.95,0,0,1,7
-8.01,1.35,-6.91,0,0,1,7
-8.17,1.82,-6.58,0,0,1,7
-7.17,1.83,-6.45,0,0,1,7
-7.78,1.77,-5.69,0,0,1,7
-7.76,-0.14,-5.46,0,0,1,7
-8.79,-0.67,-3.99,0,0,1,7
-9.69,-2.1,-5.36,0,0,1,7
-8.92,-1.08,-6.23,0,0,1,7
-9.37,-0.41,-7.5,0,0,1,7
-9.62,0.54,-7.66,0,0,1,7
-9.73,-0.54,-6.7,0,0,1,7
-9.33,-1.38,-2.99,0,0,1,7
-7.35,-0.64,0.3,0,0,1,7
-7.32,-0.69,-1.4,0,0,1,7
-8.73,-1.61,-3.15,0,0,1,7
-10.65,-0.19,-1.72,0,0,1,7
-8.78,0.84,-0.9,0,0,1,7
-10.45,-0.29,-2.96,0,0,1,7
-9.74,-0.89,-2.36,0,0,1,7
-10.21,-4.1,-2.82,0,0,1,7
-9.22,-3.23,-2.62,0,0,1,7
-9.19,-3.02,-3.02,0,0,1,7
-9.44,-1.61,-3.62,0,0,1,7
-9.13,-0.81,-4.08,0,0,1,7
-8.79,-0.25,-3.94,0,0,1,7
-10.25,-1.04,-4.19,0,0,1,7
-10.18,-1.36,-4.09,0,0,1,7
-9.15,-1.44,-4.33,0,0,1,7
-9.52,-1.62,-5.18,0,0,1,7
-8.99,-1.64,-5.83,0,0,1,7
-9.9,-1.78,-7.36,0,0,1,7
-8.84,-1.26,-8.37,0,0,1,7
-7.19,0.14,-6.54,0,0,1,7
-4.97,1.02,-4.08,0,0,1,7
-5.59,1.32,-3.92,0,0,1,7
-7.72,0.76,-5.97,0,0,1,7
-8.89,-0.77,-7.31,0,0,1,7
-9.55,-2.14,-7.76,0,0,1,7
-9.0,-2.55,-7.71,0,0,1,7
-9.16,-0.22,-6.78,0,0,1,7
-7.69,1.91,-5.25,0,0,1,8
-8.31,2.55,-6.21,0,0,1,8
-7.78,2.05,-6.26,0,0,1,8
-7.29,1.33,-6.26,0,0,1,8
-6.88,0.46,-6.15,0,0,1,8
-6.92,0.46,-6.51,0,0,1,8
-7.07,0.78,-7.2,0,0,1,8
-7.03,1.08,-7.22,0,0,1,8
-6.95,0.77,-7.0,0,0,1,8
-7.43,0.94,-6.95,0,0,1,8
-8.01,1.35,-6.91,0,0,1,8
-8.17,1.82,-6.58,0,0,1,8
-7.17,1.83,-6.45,0,0,1,8
-7.78,1.77,-5.69,0,0,1,8
-7.76,-0.14,-5.46,0,0,1,8
-8.79,-0.67,-3.99,0,0,1,8
-9.69,-2.1,-5.36,0,0,1,8
-8.92,-1.08,-6.23,0,0,1,8
-9.37,-0.41,-7.5,0,0,1,8
-9.62,0.54,-7.66,0,0,1,8
-9.73,-0.54,-6.7,0,0,1,8
-9.33,-1.38,-2.99,0,0,1,8
-7.35,-0.64,0.3,0,0,1,8
-7.32,-0.69,-1.4,0,0,1,8
-8.73,-1.61,-3.15,0,0,1,8
-10.65,-0.19,-1.72,0,0,1,8
-8.78,0.84,-0.9,0,0,1,8
-10.45,-0.29,-2.96,0,0,1,8
-9.74,-0.89,-2.36,0,0,1,8
-10.21,-4.1,-2.82,0,0,1,8
-9.22,-3.23,-2.62,0,0,1,8
-9.19,-3.02,-3.02,0,0,1,8
-9.44,-1.61,-3.62,0,0,1,8
-9.13,-0.81,-4.08,0,0,1,8
-8.79,-0.25,-3.94,0,0,1,8
-10.25,-1.04,-4.19,0,0,1,8
-10.18,-1.36,-4.09,0,0,1,8
-9.15,-1.44,-4.33,0,0,1,8
-9.52,-1.62,-5.18,0,0,1,8
-8.99,-1.64,-5.83,0,0,1,8
-9.9,-1.78,-7.36,0,0,1,8
-8.84,-1.26,-8.37,0,0,1,8
-7.19,0.14,-6.54,0,0,1,8
-4.97,1.02,-4.08,0,0,1,8
-5.59,1.32,-3.92,0,0,1,8
-7.72,0.76,-5.97,0,0,1,8
-8.89,-0.77,-7.31,0,0,1,8
-9.55,-2.14,-7.76,0,0,1,8
-9.0,-2.55,-7.71,0,0,1,8
-9.16,-0.22,-6.78,0,0,1,8
-10.41,4.92,-4.4,0,0,1,8
-9.92,7.99,-4.08,0,0,1,8
-6.7,6.01,-5.85,0,0,1,8
-5.89,2.65,-4.66,0,0,1,8
-4.43,2.47,-1.3,0,0,1,8
-6.92,4.26,-2.93,0,0,1,8
-9.69,5.38,-4.3,0,0,1,8
-8.9,4.91,-3.34,0,0,1,8
-8.09,4.46,-1.72,0,0,1,8
-7.14,4.97,-2.13,0,0,1,8
-7.97,5.73,-3.02,0,0,1,8
-8.58,5.3,-3.23,0,0,1,8
-7.76,4.14,-1.78,0,0,1,8
-7.71,2.44,-0.22,0,0,1,8
-8.66,1.13,0.04,0,0,1,8
-9.55,0.82,-1.68,0,0,1,8
-9.45,1.17,-2.97,0,0,1,8
-8.91,2.28,-2.62,0,0,1,8
-9.13,2.65,-1.09,0,0,1,8
-9.12,1.81,-0.23,0,0,1,8
-8.55,1.16,-1.99,0,0,1,8
-9.59,1.1,-3.42,0,0,1,8
-8.4,0.75,-4.77,0,0,1,8
-9.09,-0.18,-4.38,0,0,1,8
-9.46,0.25,-6.03,0,0,1,8
-8.47,0.75,-6.04,0,0,1,8
-7.99,2.23,-5.05,0,0,1,8
-9.1,2.9,-7.36,0,0,1,8
-10.42,2.63,-8.62,0,0,1,8
-8.93,0.95,-6.33,0,0,1,8
-7.11,0.29,-4.23,0,0,1,8
-5.95,1.38,-3.42,0,0,1,8
-6.75,2.7,-4.44,0,0,1,8
-8.17,2.97,-6.63,0,0,1,8
-8.99,3.36,-8.34,0,0,1,8
-9.04,2.94,-7.83,0,0,1,8
-8.36,1.52,-6.54,0,0,1,8
-7.7,0.78,-5.72,0,0,1,8
-7.5,1.31,-5.61,0,0,1,8
-7.9,2.34,-5.69,0,0,1,8
-8.19,2.92,-5.83,0,0,1,8
-7.66,3.14,-5.55,0,0,1,8
-7.3,3.01,-5.62,0,0,1,8
-7.35,2.92,-5.46,0,0,1,8
-7.25,2.96,-5.42,0,0,1,8
-7.53,3.25,-5.45,0,0,1,8
-7.27,3.83,-6.0,0,0,1,8
-7.51,4.54,-5.72,0,0,1,8
-7.24,5.42,-5.07,0,0,1,8
-7.35,5.77,-4.85,0,0,1,8
-10.41,4.92,-4.4,0,0,1,9
-9.92,7.99,-4.08,0,0,1,9
-6.7,6.01,-5.85,0,0,1,9
-5.89,2.65,-4.66,0,0,1,9
-4.43,2.47,-1.3,0,0,1,9
-6.92,4.26,-2.93,0,0,1,9
-9.69,5.38,-4.3,0,0,1,9
-8.9,4.91,-3.34,0,0,1,9
-8.09,4.46,-1.72,0,0,1,9
-7.14,4.97,-2.13,0,0,1,9
-7.97,5.73,-3.02,0,0,1,9
-8.58,5.3,-3.23,0,0,1,9
-7.76,4.14,-1.78,0,0,1,9
-7.71,2.44,-0.22,0,0,1,9
-8.66,1.13,0.04,0,0,1,9
-9.55,0.82,-1.68,0,0,1,9
-9.45,1.17,-2.97,0,0,1,9
-8.91,2.28,-2.62,0,0,1,9
-9.13,2.65,-1.09,0,0,1,9
-9.12,1.81,-0.23,0,0,1,9
-8.55,1.16,-1.99,0,0,1,9
-9.59,1.1,-3.42,0,0,1,9
-8.4,0.75,-4.77,0,0,1,9
-9.09,-0.18,-4.38,0,0,1,9
-9.46,0.25,-6.03,0,0,1,9
-8.47,0.75,-6.04,0,0,1,9
-7.99,2.23,-5.05,0,0,1,9
-9.1,2.9,-7.36,0,0,1,9
-10.42,2.63,-8.62,0,0,1,9
-8.93,0.95,-6.33,0,0,1,9
-7.11,0.29,-4.23,0,0,1,9
-5.95,1.38,-3.42,0,0,1,9
-6.75,2.7,-4.44,0,0,1,9
-8.17,2.97,-6.63,0,0,1,9
-8.99,3.36,-8.34,0,0,1,9
-9.04,2.94,-7.83,0,0,1,9
-8.36,1.52,-6.54,0,0,1,9
-7.7,0.78,-5.72,0,0,1,9
-7.5,1.31,-5.61,0,0,1,9
-7.9,2.34,-5.69,0,0,1,9
-8.19,2.92,-5.83,0,0,1,9
-7.66,3.14,-5.55,0,0,1,9
-7.3,3.01,-5.62,0,0,1,9
-7.35,2.92,-5.46,0,0,1,9
-7.25,2.96,-5.42,0,0,1,9
-7.53,3.25,-5.45,0,0,1,9
-7.27,3.83,-6.0,0,0,1,9
-7.51,4.54,-5.72,0,0,1,9
-7.24,5.42,-5.07,0,0,1,9
-7.35,5.77,-4.85,0,0,1,9
-7.65,5.31,-4.77,0,0,1,9
-7.62,4.73,-4.52,0,0,1,9
-7.4,4.44,-4.09,0,0,1,9
-7.31,4.36,-4.24,0,0,1,9
-7.64,4.42,-4.21,0,0,1,9
-7.9,4.66,-4.2,0,0,1,9
-7.97,4.68,-4.24,0,0,1,9
-9.32,3.24,-4.28,0,0,1,9
-10.08,2.34,-1.0,0,0,1,9
-9.05,2.86,-0.77,0,0,1,9
-9.83,0.75,-4.42,0,0,1,9
-11.09,-2.32,-9.55,0,0,1,9
-10.28,-3.67,-8.8,0,0,1,9
-7.93,-1.97,-6.02,0,0,1,9
-6.79,0.84,-3.21,0,0,1,9
-6.5,2.02,-2.67,0,0,1,9
-6.94,1.31,-3.31,0,0,1,9
-7.71,0.95,-4.0,0,0,1,9
-8.87,1.88,-4.83,0,0,1,9
-9.55,3.54,-4.65,0,0,1,9
-9.71,4.63,-4.35,0,0,1,9
-10.04,4.98,-4.16,0,0,1,9
-10.05,4.99,-4.2,0,0,1,9
-9.42,4.53,-3.78,0,0,1,9
-8.15,3.85,-3.25,0,0,1,9
-7.29,3.57,-2.66,0,0,1,9
-6.85,3.83,-2.32,0,0,1,9
-6.57,4.25,-2.23,0,0,1,9
-6.57,4.06,-2.02,0,0,1,9
-6.61,3.27,-2.01,0,0,1,9
-6.92,2.46,-2.29,0,0,1,9
-7.03,2.44,-2.97,0,0,1,9
-7.49,2.81,-3.8,0,0,1,9
-7.92,3.62,-3.66,0,0,1,9
-8.53,5.43,-3.39,0,0,1,9
-12.87,5.58,-3.99,0,0,1,9
-13.15,6.41,-8.49,0,0,1,9
-13.08,4.63,-6.83,0,0,1,9
-8.53,3.91,-2.49,0,0,1,9
-6.78,3.02,0.19,0,0,1,9
-7.96,2.84,-0.9,0,0,1,9
-9.06,1.16,-4.61,0,0,1,9
-9.11,-0.25,-7.08,0,0,1,9
-7.32,-1.18,-5.48,0,0,1,9
-7.15,-0.61,-5.47,0,0,1,9
-7.45,0.37,-5.13,0,0,1,9
-7.65,0.01,-4.5,0,0,1,9
-7.73,-0.79,-4.36,0,0,1,9
-8.2,-0.55,-4.37,0,0,1,9
-8.56,1.41,-4.86,0,0,1,9
-7.65,5.31,-4.77,0,0,1,10
-7.62,4.73,-4.52,0,0,1,10
-7.4,4.44,-4.09,0,0,1,10
-7.31,4.36,-4.24,0,0,1,10
-7.64,4.42,-4.21,0,0,1,10
-7.9,4.66,-4.2,0,0,1,10
-7.97,4.68,-4.24,0,0,1,10
-9.32,3.24,-4.28,0,0,1,10
-10.08,2.34,-1.0,0,0,1,10
-9.05,2.86,-0.77,0,0,1,10
-9.83,0.75,-4.42,0,0,1,10
-11.09,-2.32,-9.55,0,0,1,10
-10.28,-3.67,-8.8,0,0,1,10
-7.93,-1.97,-6.02,0,0,1,10
-6.79,0.84,-3.21,0,0,1,10
-6.5,2.02,-2.67,0,0,1,10
-6.94,1.31,-3.31,0,0,1,10
-7.71,0.95,-4.0,0,0,1,10
-8.87,1.88,-4.83,0,0,1,10
-9.55,3.54,-4.65,0,0,1,10
-9.71,4.63,-4.35,0,0,1,10
-10.04,4.98,-4.16,0,0,1,10
-10.05,4.99,-4.2,0,0,1,10
-9.42,4.53,-3.78,0,0,1,10
-8.15,3.85,-3.25,0,0,1,10
-7.29,3.57,-2.66,0,0,1,10
-6.85,3.83,-2.32,0,0,1,10
-6.57,4.25,-2.23,0,0,1,10
-6.57,4.06,-2.02,0,0,1,10
-6.61,3.27,-2.01,0,0,1,10
-6.92,2.46,-2.29,0,0,1,10
-7.03,2.44,-2.97,0,0,1,10
-7.49,2.81,-3.8,0,0,1,10
-7.92,3.62,-3.66,0,0,1,10
-8.53,5.43,-3.39,0,0,1,10
-12.87,5.58,-3.99,0,0,1,10
-13.15,6.41,-8.49,0,0,1,10
-13.08,4.63,-6.83,0,0,1,10
-8.53,3.91,-2.49,0,0,1,10
-6.78,3.02,0.19,0,0,1,10
-7.96,2.84,-0.9,0,0,1,10
-9.06,1.16,-4.61,0,0,1,10
-9.11,-0.25,-7.08,0,0,1,10
-7.32,-1.18,-5.48,0,0,1,10
-7.15,-0.61,-5.47,0,0,1,10
-7.45,0.37,-5.13,0,0,1,10
-7.65,0.01,-4.5,0,0,1,10
-7.73,-0.79,-4.36,0,0,1,10
-8.2,-0.55,-4.37,0,0,1,10
-8.56,1.41,-4.86,0,0,1,10
-8.86,3.48,-5.84,0,0,1,10
-9.22,4.46,-6.67,0,0,1,10
-8.85,4.08,-6.29,0,0,1,10
-8.07,2.79,-5.29,0,0,1,10
-7.4,1.61,-4.28,0,0,1,10
-7.14,0.84,-4.38,0,0,1,10
-7.46,0.94,-4.87,0,0,1,10
-7.96,1.33,-5.47,0,0,1,10
-7.74,1.81,-5.62,0,0,1,10
-7.38,1.87,-5.22,0,0,1,10
-6.65,2.26,-4.73,0,0,1,10
-6.09,3.62,-4.4,0,0,1,10
-6.61,5.16,-4.21,0,0,1,10
-7.12,6.15,-4.6,0,0,1,10
-7.75,5.43,-5.59,0,0,1,10
-7.33,4.38,-5.58,0,0,1,10
-9.95,1.68,-5.07,0,0,1,10
-9.33,1.53,-2.58,0,0,1,10
-9.31,3.12,-3.4,0,0,1,10
-13.67,2.2,-7.37,0,0,1,10
-15.11,1.27,-11.43,0,0,1,10
-13.07,0.28,-10.88,0,0,1,10
-9.73,-0.31,-8.0,0,0,1,10
-6.91,-0.3,-4.47,0,0,1,10
-4.86,-0.82,-0.02,0,0,1,10
-3.15,-1.42,2.08,0,0,1,10
-5.09,-0.7,0.83,0,0,1,10
-8.15,1.28,-2.35,0,0,1,10
-10.74,3.89,-5.09,0,0,1,10
-11.84,4.91,-6.5,0,0,1,10
-11.35,3.81,-6.76,0,0,1,10
-9.23,3.54,-4.84,0,0,1,10
-7.28,2.44,-2.12,0,0,1,10
-6.36,1.7,-1.06,0,0,1,10
-6.58,1.84,-1.7,0,0,1,10
-7.77,1.96,-2.97,0,0,1,10
-7.85,1.94,-3.73,0,0,1,10
-7.42,1.61,-3.3,0,0,1,10
-7.02,1.5,-2.19,0,0,1,10
-7.97,1.29,-2.42,0,0,1,10
-8.69,1.35,-3.79,0,0,1,10
-9.35,1.47,-4.93,0,0,1,10
-9.29,2.32,-5.02,0,0,1,10
-8.55,3.32,-4.38,0,0,1,10
-8.06,4.08,-3.35,0,0,1,10
-6.79,4.65,-3.2,0,0,1,10
-6.9,5.49,-3.2,0,0,1,10
-7.68,6.62,-4.15,0,0,1,10
-7.84,7.11,-4.51,0,0,1,10
-7.58,6.98,-3.68,0,0,1,10
-8.86,3.48,-5.84,0,0,1,11
-9.22,4.46,-6.67,0,0,1,11
-8.85,4.08,-6.29,0,0,1,11
-8.07,2.79,-5.29,0,0,1,11
-7.4,1.61,-4.28,0,0,1,11
-7.14,0.84,-4.38,0,0,1,11
-7.46,0.94,-4.87,0,0,1,11
-7.96,1.33,-5.47,0,0,1,11
-7.74,1.81,-5.62,0,0,1,11
-7.38,1.87,-5.22,0,0,1,11
-6.65,2.26,-4.73,0,0,1,11
-6.09,3.62,-4.4,0,0,1,11
-6.61,5.16,-4.21,0,0,1,11
-7.12,6.15,-4.6,0,0,1,11
-7.75,5.43,-5.59,0,0,1,11
-7.33,4.38,-5.58,0,0,1,11
-9.95,1.68,-5.07,0,0,1,11
-9.33,1.53,-2.58,0,0,1,11
-9.31,3.12,-3.4,0,0,1,11
-13.67,2.2,-7.37,0,0,1,11
-15.11,1.27,-11.43,0,0,1,11
-13.07,0.28,-10.88,0,0,1,11
-9.73,-0.31,-8.0,0,0,1,11
-6.91,-0.3,-4.47,0,0,1,11
-4.86,-0.82,-0.02,0,0,1,11
-3.15,-1.42,2.08,0,0,1,11
-5.09,-0.7,0.83,0,0,1,11
-8.15,1.28,-2.35,0,0,1,11
-10.74,3.89,-5.09,0,0,1,11
-11.84,4.91,-6.5,0,0,1,11
-11.35,3.81,-6.76,0,0,1,11
-9.23,3.54,-4.84,0,0,1,11
-7.28,2.44,-2.12,0,0,1,11
-6.36,1.7,-1.06,0,0,1,11
-6.58,1.84,-1.7,0,0,1,11
-7.77,1.96,-2.97,0,0,1,11
-7.85,1.94,-3.73,0,0,1,11
-7.42,1.61,-3.3,0,0,1,11
-7.02,1.5,-2.19,0,0,1,11
-7.97,1.29,-2.42,0,0,1,11
-8.69,1.35,-3.79,0,0,1,11
-9.35,1.47,-4.93,0,0,1,11
-9.29,2.32,-5.02,0,0,1,11
-8.55,3.32,-4.38,0,0,1,11
-8.06,4.08,-3.35,0,0,1,11
-6.79,4.65,-3.2,0,0,1,11
-6.9,5.49,-3.2,0,0,1,11
-7.68,6.62,-4.15,0,0,1,11
-7.84,7.11,-4.51,0,0,1,11
-7.58,6.98,-3.68,0,0,1,11
-6.66,5.99,-2.65,0,0,1,11
-13.29,1.48,-1.75,0,0,1,11
-13.46,0.74,-8.45,0,0,1,11
-17.64,-3.97,-12.34,0,0,1,11
-10.1,-3.61,-7.77,0,0,1,11
-5.7,1.46,-0.63,0,0,1,11
-6.16,6.6,0.23,0,0,1,11
-7.2,7.55,-2.08,0,0,1,11
-8.13,2.31,-5.06,0,0,1,11
-8.69,-3.59,-7.19,0,0,1,11
-9.51,-6.59,-7.54,0,0,1,11
-7.66,-3.11,-4.9,0,0,1,11
-6.23,1.4,-1.84,0,0,1,11
-6.9,4.45,-1.94,0,0,1,11
-8.18,5.12,-3.94,0,0,1,11
-9.3,3.09,-7.02,0,0,1,11
-9.62,1.25,-8.63,0,0,1,11
-8.77,0.12,-7.23,0,0,1,11
-7.23,0.32,-4.55,0,0,1,11
-6.52,1.7,-3.1,0,0,1,11
-6.25,2.75,-3.3,0,0,1,11
-7.06,3.11,-4.3,0,0,1,11
-7.67,3.16,-5.08,0,0,1,11
-7.2,3.34,-5.18,0,0,1,11
-6.96,3.5,-5.12,0,0,1,11
-8.28,2.77,-4.81,0,0,1,11
-9.46,1.61,-4.78,0,0,1,11
-8.33,0.96,-4.95,0,0,1,11
-8.03,1.19,-5.02,0,0,1,11
-7.63,1.73,-4.9,0,0,1,11
-7.87,1.86,-5.36,0,0,1,11
-8.34,2.55,-3.48,0,0,1,11
-9.53,5.81,-5.29,0,0,1,11
-12.73,7.93,-7.18,0,0,1,11
-13.22,5.32,-9.62,0,0,1,11
-11.23,1.19,-10.5,0,0,1,11
-10.09,-2.0,-9.87,0,0,1,11
-7.43,-3.27,-4.14,0,0,1,11
-3.69,-3.0,1.8,0,0,1,11
-3.07,-1.49,2.99,0,0,1,11
-4.76,-0.66,0.16,0,0,1,11
-7.37,0.14,-4.1,0,0,1,11
-10.17,2.31,-7.06,0,0,1,11
-12.35,5.2,-8.43,0,0,1,11
-12.35,5.9,-7.71,0,0,1,11
-10.3,5.3,-4.78,0,0,1,11
-7.77,4.62,-1.76,0,0,1,11
-7.1,4.08,-1.56,0,0,1,11
-7.3,3.86,-2.61,0,0,1,11
-7.76,3.13,-4.15,0,0,1,11
-6.66,5.99,-2.65,0,0,1,12
-13.29,1.48,-1.75,0,0,1,12
-13.46,0.74,-8.45,0,0,1,12
-17.64,-3.97,-12.34,0,0,1,12
-10.1,-3.61,-7.77,0,0,1,12
-5.7,1.46,-0.63,0,0,1,12
-6.16,6.6,0.23,0,0,1,12
-7.2,7.55,-2.08,0,0,1,12
-8.13,2.31,-5.06,0,0,1,12
-8.69,-3.59,-7.19,0,0,1,12
-9.51,-6.59,-7.54,0,0,1,12
-7.66,-3.11,-4.9,0,0,1,12
-6.23,1.4,-1.84,0,0,1,12
-6.9,4.45,-1.94,0,0,1,12
-8.18,5.12,-3.94,0,0,1,12
-9.3,3.09,-7.02,0,0,1,12
-9.62,1.25,-8.63,0,0,1,12
-8.77,0.12,-7.23,0,0,1,12
-7.23,0.32,-4.55,0,0,1,12
-6.52,1.7,-3.1,0,0,1,12
-6.25,2.75,-3.3,0,0,1,12
-7.06,3.11,-4.3,0,0,1,12
-7.67,3.16,-5.08,0,0,1,12
-7.2,3.34,-5.18,0,0,1,12
-6.96,3.5,-5.12,0,0,1,12
-8.28,2.77,-4.81,0,0,1,12
-9.46,1.61,-4.78,0,0,1,12
-8.33,0.96,-4.95,0,0,1,12
-8.03,1.19,-5.02,0,0,1,12
-7.63,1.73,-4.9,0,0,1,12
-7.87,1.86,-5.36,0,0,1,12
-8.34,2.55,-3.48,0,0,1,12
-9.53,5.81,-5.29,0,0,1,12
-12.73,7.93,-7.18,0,0,1,12
-13.22,5.32,-9.62,0,0,1,12
-11.23,1.19,-10.5,0,0,1,12
-10.09,-2.0,-9.87,0,0,1,12
-7.43,-3.27,-4.14,0,0,1,12
-3.69,-3.0,1.8,0,0,1,12
-3.07,-1.49,2.99,0,0,1,12
-4.76,-0.66,0.16,0,0,1,12
-7.37,0.14,-4.1,0,0,1,12
-10.17,2.31,-7.06,0,0,1,12
-12.35,5.2,-8.43,0,0,1,12
-12.35,5.9,-7.71,0,0,1,12
-10.3,5.3,-4.78,0,0,1,12
-7.77,4.62,-1.76,0,0,1,12
-7.1,4.08,-1.56,0,0,1,12
-7.3,3.86,-2.61,0,0,1,12
-7.76,3.13,-4.15,0,0,1,12
-7.94,2.54,-4.5,0,0,1,12
-7.4,2.26,-3.9,0,0,1,12
-7.09,2.1,-3.3,0,0,1,12
-6.69,1.43,-3.49,0,0,1,12
-7.18,0.43,-4.19,0,0,1,12
-7.27,0.14,-4.69,0,0,1,12
-7.16,0.68,-4.79,0,0,1,12
-7.39,2.37,-4.21,0,0,1,12
-7.87,4.52,-4.2,0,0,1,12
-8.72,5.75,-4.61,0,0,1,12
-9.3,6.06,-5.46,0,0,1,12
-8.89,5.72,-5.35,0,0,1,12
-7.89,5.71,-4.59,0,0,1,12
-7.13,6.0,-3.66,0,0,1,12
-9.84,4.77,-3.34,0,0,1,12
-10.32,4.36,-7.29,0,0,1,12
-11.81,0.5,-8.61,0,0,1,12
-12.52,-2.43,-8.19,0,0,1,12
-9.23,-2.62,-5.59,0,0,1,12
-7.56,-0.14,-2.52,0,0,1,12
-7.38,2.28,-1.45,0,0,1,12
-7.02,1.93,-2.6,0,0,1,12
-7.49,-0.23,-4.43,0,0,1,12
-7.98,-2.42,-6.29,0,0,1,12
-8.35,-2.2,-6.94,0,0,1,12
-8.21,0.51,-5.7,0,0,1,12
-7.26,3.69,-3.78,0,0,1,12
-7.33,5.03,-3.21,0,0,1,12
-7.71,4.42,-4.48,0,0,1,12
-8.22,3.03,-6.3,0,0,1,12
-8.37,1.73,-6.38,0,0,1,12
-7.82,1.42,-5.01,0,0,1,12
-7.47,1.73,-3.9,0,0,1,12
-7.45,1.95,-4.17,0,0,1,12
-7.77,1.87,-5.09,0,0,1,12
-8.06,1.51,-5.97,0,0,1,12
-8.22,1.02,-6.08,0,0,1,12
-7.98,0.9,-5.57,0,0,1,12
-7.68,1.22,-5.2,0,0,1,12
-8.11,1.43,-5.68,0,0,1,12
-8.03,1.64,-6.31,0,0,1,12
-7.79,1.98,-6.14,0,0,1,12
-7.56,2.21,-5.4,0,0,1,12
-7.41,2.26,-4.93,0,0,1,12
-7.04,2.24,-4.92,0,0,1,12
-7.24,2.44,-5.28,0,0,1,12
-7.54,2.67,-5.72,0,0,1,12
-7.59,2.8,-5.87,0,0,1,12
-7.28,3.02,-6.0,0,0,1,12
-7.59,2.67,-6.62,0,0,1,12
-7.94,2.54,-4.5,0,0,1,13
-7.4,2.26,-3.9,0,0,1,13
-7.09,2.1,-3.3,0,0,1,13
-6.69,1.43,-3.49,0,0,1,13
-7.18,0.43,-4.19,0,0,1,13
-7.27,0.14,-4.69,0,0,1,13
-7.16,0.68,-4.79,0,0,1,13
-7.39,2.37,-4.21,0,0,1,13
-7.87,4.52,-4.2,0,0,1,13
-8.72,5.75,-4.61,0,0,1,13
-9.3,6.06,-5.46,0,0,1,13
-8.89,5.72,-5.35,0,0,1,13
-7.89,5.71,-4.59,0,0,1,13
-7.13,6.0,-3.66,0,0,1,13
-9.84,4.77,-3.34,0,0,1,13
-10.32,4.36,-7.29,0,0,1,13
-11.81,0.5,-8.61,0,0,1,13
-12.52,-2.43,-8.19,0,0,1,13
-9.23,-2.62,-5.59,0,0,1,13
-7.56,-0.14,-2.52,0,0,1,13
-7.38,2.28,-1.45,0,0,1,13
-7.02,1.93,-2.6,0,0,1,13
-7.49,-0.23,-4.43,0,0,1,13
-7.98,-2.42,-6.29,0,0,1,13
-8.35,-2.2,-6.94,0,0,1,13
-8.21,0.51,-5.7,0,0,1,13
-7.26,3.69,-3.78,0,0,1,13
-7.33,5.03,-3.21,0,0,1,13
-7.71,4.42,-4.48,0,0,1,13
-8.22,3.03,-6.3,0,0,1,13
-8.37,1.73,-6.38,0,0,1,13
-7.82,1.42,-5.01,0,0,1,13
-7.47,1.73,-3.9,0,0,1,13
-7.45,1.95,-4.17,0,0,1,13
-7.77,1.87,-5.09,0,0,1,13
-8.06,1.51,-5.97,0,0,1,13
-8.22,1.02,-6.08,0,0,1,13
-7.98,0.9,-5.57,0,0,1,13
-7.68,1.22,-5.2,0,0,1,13
-8.11,1.43,-5.68,0,0,1,13
-8.03,1.64,-6.31,0,0,1,13
-7.79,1.98,-6.14,0,0,1,13
-7.56,2.21,-5.4,0,0,1,13
-7.41,2.26,-4.93,0,0,1,13
-7.04,2.24,-4.92,0,0,1,13
-7.24,2.44,-5.28,0,0,1,13
-7.54,2.67,-5.72,0,0,1,13
-7.59,2.8,-5.87,0,0,1,13
-7.28,3.02,-6.0,0,0,1,13
-7.59,2.67,-6.62,0,0,1,13
-7.91,2.36,-7.07,0,0,1,13
-7.68,2.21,-6.92,0,0,1,13
-6.99,2.52,-6.09,0,0,1,13
-6.53,2.58,-6.33,0,0,1,13
-6.41,2.16,-6.62,0,0,1,13
-9.41,0.76,-5.23,0,0,1,13
-8.11,2.57,-2.13,0,0,1,13
-7.85,4.88,-0.92,0,0,1,13
-9.29,1.12,-4.12,0,0,1,13
-13.14,-2.59,-7.57,0,0,1,13
-13.93,-4.45,-8.83,0,0,1,13
-12.52,-5.05,-9.0,0,0,1,13
-9.73,-1.66,-5.85,0,0,1,13
-7.48,2.27,-1.68,0,0,1,13
-8.51,3.82,0.3,0,0,1,13
-10.36,3.49,-1.38,0,0,1,13
-11.54,2.98,-5.13,0,0,1,13
-11.28,1.83,-6.85,0,0,1,13
-9.36,0.74,-4.14,0,0,1,13
-7.07,0.6,-0.71,0,0,1,13
-6.26,1.84,-0.28,0,0,1,13
-7.35,2.77,-2.65,0,0,1,13
-7.83,2.64,-3.98,0,0,1,13
-7.57,1.76,-3.06,0,0,1,13
-7.53,0.92,-2.45,0,0,1,13
-7.69,0.79,-2.38,0,0,1,13
-8.16,1.44,-2.55,0,0,1,13
-8.32,2.91,-3.21,0,0,1,13
-7.4,3.52,-3.19,0,0,1,13
-7.48,3.73,-2.94,0,0,1,13
-6.92,3.05,-3.22,0,0,1,13
-6.11,2.02,-2.55,0,0,1,13
-7.47,1.91,-2.45,0,0,1,13
-10.72,3.15,-5.46,0,0,1,13
-13.03,4.65,-7.87,0,0,1,13
-13.01,5.61,-7.96,0,0,1,13
-11.41,2.3,-5.33,0,0,1,13
-9.23,-0.93,-3.89,0,0,1,13
-7.56,-1.23,-3.67,0,0,1,13
-6.84,-1.37,-3.3,0,0,1,13
-6.87,-1.28,-3.27,0,0,1,13
-6.72,0.08,-4.06,0,0,1,13
-7.33,2.17,-5.08,0,0,1,13
-8.12,2.68,-4.7,0,0,1,13
-8.58,2.05,-4.29,0,0,1,13
-8.52,2.11,-4.65,0,0,1,13
-8.34,2.32,-5.25,0,0,1,13
-7.75,2.18,-5.55,0,0,1,13
-7.66,2.02,-5.82,0,0,1,13
-7.73,1.62,-6.12,0,0,1,13
-7.91,2.36,-7.07,0,0,1,14
-7.68,2.21,-6.92,0,0,1,14
-6.99,2.52,-6.09,0,0,1,14
-6.53,2.58,-6.33,0,0,1,14
-6.41,2.16,-6.62,0,0,1,14
-9.41,0.76,-5.23,0,0,1,14
-8.11,2.57,-2.13,0,0,1,14
-7.85,4.88,-0.92,0,0,1,14
-9.29,1.12,-4.12,0,0,1,14
-13.14,-2.59,-7.57,0,0,1,14
-13.93,-4.45,-8.83,0,0,1,14
-12.52,-5.05,-9.0,0,0,1,14
-9.73,-1.66,-5.85,0,0,1,14
-7.48,2.27,-1.68,0,0,1,14
-8.51,3.82,0.3,0,0,1,14
-10.36,3.49,-1.38,0,0,1,14
-11.54,2.98,-5.13,0,0,1,14
-11.28,1.83,-6.85,0,0,1,14
-9.36,0.74,-4.14,0,0,1,14
-7.07,0.6,-0.71,0,0,1,14
-6.26,1.84,-0.28,0,0,1,14
-7.35,2.77,-2.65,0,0,1,14
-7.83,2.64,-3.98,0,0,1,14
-7.57,1.76,-3.06,0,0,1,14
-7.53,0.92,-2.45,0,0,1,14
-7.69,0.79,-2.38,0,0,1,14
-8.16,1.44,-2.55,0,0,1,14
-8.32,2.91,-3.21,0,0,1,14
-7.4,3.52,-3.19,0,0,1,14
-7.48,3.73,-2.94,0,0,1,14
-6.92,3.05,-3.22,0,0,1,14
-6.11,2.02,-2.55,0,0,1,14
-7.47,1.91,-2.45,0,0,1,14
-10.72,3.15,-5.46,0,0,1,14
-13.03,4.65,-7.87,0,0,1,14
-13.01,5.61,-7.96,0,0,1,14
-11.41,2.3,-5.33,0,0,1,14
-9.23,-0.93,-3.89,0,0,1,14
-7.56,-1.23,-3.67,0,0,1,14
-6.84,-1.37,-3.3,0,0,1,14
-6.87,-1.28,-3.27,0,0,1,14
-6.72,0.08,-4.06,0,0,1,14
-7.33,2.17,-5.08,0,0,1,14
-8.12,2.68,-4.7,0,0,1,14
-8.58,2.05,-4.29,0,0,1,14
-8.52,2.11,-4.65,0,0,1,14
-8.34,2.32,-5.25,0,0,1,14
-7.75,2.18,-5.55,0,0,1,14
-7.66,2.02,-5.82,0,0,1,14
-7.73,1.62,-6.12,0,0,1,14
-7.83,1.6,-5.78,0,0,1,14
-7.88,1.91,-5.25,0,0,1,14
-7.86,2.44,-5.01,0,0,1,14
-8.18,2.64,-5.39,0,0,1,14
-8.26,3.52,-5.56,0,0,1,14
-8.27,4.33,-5.31,0,0,1,14
-7.97,4.27,-5.16,0,0,1,14
-7.82,3.65,-5.42,0,0,1,14
-7.72,3.06,-5.7,0,0,1,14
-7.55,2.68,-5.77,0,0,1,14
-7.57,2.83,-5.53,0,0,1,14
-6.98,3.63,-5.12,0,0,1,14
-6.85,4.2,-5.09,0,0,1,14
-7.19,3.78,-5.68,0,0,1,14
-7.41,3.49,-5.71,0,0,1,14
-6.86,3.68,-5.8,0,0,1,14
-7.16,3.34,-5.81,0,0,1,14
-7.55,2.41,-6.42,0,0,1,14
-10.49,1.31,-5.24,0,0,1,14
-6.85,1.94,-4.61,0,0,1,14
-6.17,2.16,-4.88,0,0,1,14
-8.0,1.66,-6.15,0,0,1,14
-8.33,2.46,-5.39,0,0,1,14
-8.03,3.94,-4.96,0,0,1,14
-9.58,3.87,-6.3,0,0,1,14
-11.0,2.61,-8.08,0,0,1,14
-10.58,2.29,-7.28,0,0,1,14
-9.08,2.3,-4.31,0,0,1,14
-8.66,1.4,-3.16,0,0,1,14
-8.27,-0.58,-2.98,0,0,1,14
-7.14,-1.92,-3.0,0,0,1,14
-7.15,-2.07,-2.69,0,0,1,14
-7.65,-1.6,-3.17,0,0,1,14
-7.98,0.4,-4.2,0,0,1,14
-9.72,3.95,-5.05,0,0,1,14
-11.47,6.52,-5.8,0,0,1,14
-10.74,6.16,-5.56,0,0,1,14
-9.59,4.13,-4.77,0,0,1,14
-8.71,2.39,-4.36,0,0,1,14
-8.34,1.73,-4.56,0,0,1,14
-8.15,2.53,-4.29,0,0,1,14
-7.98,3.26,-3.9,0,0,1,14
-7.1,3.6,-2.99,0,0,1,14
-6.3,3.44,-2.2,0,0,1,14
-5.87,3.1,-1.93,0,0,1,14
-6.08,2.56,-2.26,0,0,1,14
-5.99,2.05,-2.97,0,0,1,14
-6.39,1.31,-3.98,0,0,1,14
-7.15,1.65,-5.0,0,0,1,14
-7.81,3.08,-6.2,0,0,1,14
-7.83,1.6,-5.78,0,0,1,15
-7.88,1.91,-5.25,0,0,1,15
-7.86,2.44,-5.01,0,0,1,15
-8.18,2.64,-5.39,0,0,1,15
-8.26,3.52,-5.56,0,0,1,15
-8.27,4.33,-5.31,0,0,1,15
-7.97,4.27,-5.16,0,0,1,15
-7.82,3.65,-5.42,0,0,1,15
-7.72,3.06,-5.7,0,0,1,15
-7.55,2.68,-5.77,0,0,1,15
-7.57,2.83,-5.53,0,0,1,15
-6.98,3.63,-5.12,0,0,1,15
-6.85,4.2,-5.09,0,0,1,15
-7.19,3.78,-5.68,0,0,1,15
-7.41,3.49,-5.71,0,0,1,15
-6.86,3.68,-5.8,0,0,1,15
-7.16,3.34,-5.81,0,0,1,15
-7.55,2.41,-6.42,0,0,1,15
-10.49,1.31,-5.24,0,0,1,15
-6.85,1.94,-4.61,0,0,1,15
-6.17,2.16,-4.88,0,0,1,15
-8.0,1.66,-6.15,0,0,1,15
-8.33,2.46,-5.39,0,0,1,15
-8.03,3.94,-4.96,0,0,1,15
-9.58,3.87,-6.3,0,0,1,15
-11.0,2.61,-8.08,0,0,1,15
-10.58,2.29,-7.28,0,0,1,15
-9.08,2.3,-4.31,0,0,1,15
-8.66,1.4,-3.16,0,0,1,15
-8.27,-0.58,-2.98,0,0,1,15
-7.14,-1.92,-3.0,0,0,1,15
-7.15,-2.07,-2.69,0,0,1,15
-7.65,-1.6,-3.17,0,0,1,15
-7.98,0.4,-4.2,0,0,1,15
-9.72,3.95,-5.05,0,0,1,15
-11.47,6.52,-5.8,0,0,1,15
-10.74,6.16,-5.56,0,0,1,15
-9.59,4.13,-4.77,0,0,1,15
-8.71,2.39,-4.36,0,0,1,15
-8.34,1.73,-4.56,0,0,1,15
-8.15,2.53,-4.29,0,0,1,15
-7.98,3.26,-3.9,0,0,1,15
-7.1,3.6,-2.99,0,0,1,15
-6.3,3.44,-2.2,0,0,1,15
-5.87,3.1,-1.93,0,0,1,15
-6.08,2.56,-2.26,0,0,1,15
-5.99,2.05,-2.97,0,0,1,15
-6.39,1.31,-3.98,0,0,1,15
-7.15,1.65,-5.0,0,0,1,15
-7.81,3.08,-6.2,0,0,1,15
-9.01,4.82,-7.72,0,0,1,15
-10.68,5.98,-7.99,0,0,1,15
-14.57,4.38,-7.84,0,0,1,15
-12.16,1.67,-8.02,0,0,1,15
-7.9,-2.52,-6.18,0,0,1,15
-4.69,-2.35,-0.31,0,0,1,15
-6.1,-1.22,1.43,0,0,1,15
-10.74,0.11,-2.57,0,0,1,15
-11.37,0.63,-7.05,0,0,1,15
-10.11,-0.06,-7.78,0,0,1,15
-8.34,-0.73,-6.33,0,0,1,15
-6.24,-0.64,-4.86,0,0,1,15
-5.87,-0.7,-5.35,0,0,1,15
-7.7,-0.07,-5.79,0,0,1,15
-8.27,1.13,-5.62,0,0,1,15
-9.04,2.51,-4.87,0,0,1,15
-9.62,2.9,-5.19,0,0,1,15
-9.71,1.9,-6.84,0,0,1,15
-8.97,1.39,-8.19,0,0,1,15
-7.84,1.57,-7.2,0,0,1,15
-7.06,1.84,-5.96,0,0,1,15
-6.23,1.91,-5.27,0,0,1,15
-6.08,1.38,-5.63,0,0,1,15
-7.01,0.5,-7.05,0,0,1,15
-7.08,0.91,-7.52,0,0,1,15
-6.84,1.86,-7.57,0,0,1,15
-6.08,2.77,-7.17,0,0,1,15
-5.71,3.44,-5.94,0,0,1,15
-6.11,4.18,-5.13,0,0,1,15
-9.07,3.59,-5.17,0,0,1,15
-9.33,3.89,-3.99,0,0,1,15
-8.12,4.96,-2.78,0,0,1,15
-8.2,4.24,-3.52,0,0,1,15
-8.72,2.39,-6.42,0,0,1,15
-8.94,0.29,-7.03,0,0,1,15
-8.78,0.39,-5.83,0,0,1,15
-8.31,1.88,-4.18,0,0,1,15
-8.74,2.58,-2.96,0,0,1,15
-7.81,2.84,-3.02,0,0,1,15
-7.13,3.04,-3.75,0,0,1,15
-7.26,4.11,-4.61,0,0,1,15
-7.78,5.08,-5.6,0,0,1,15
-7.7,5.6,-5.33,0,0,1,15
-7.88,5.39,-3.39,0,0,1,15
-7.96,6.01,-2.74,0,0,1,15
-8.48,6.92,-4.18,0,0,1,15
-9.04,6.98,-5.3,0,0,1,15
-9.21,6.65,-5.63,0,0,1,15
-8.49,5.55,-4.85,0,0,1,15
-7.68,4.86,-3.48,0,0,1,15
-9.01,4.82,-7.72,0,0,1,16
-10.68,5.98,-7.99,0,0,1,16
-14.57,4.38,-7.84,0,0,1,16
-12.16,1.67,-8.02,0,0,1,16
-7.9,-2.52,-6.18,0,0,1,16
-4.69,-2.35,-0.31,0,0,1,16
-6.1,-1.22,1.43,0,0,1,16
-10.74,0.11,-2.57,0,0,1,16
-11.37,0.63,-7.05,0,0,1,16
-10.11,-0.06,-7.78,0,0,1,16
-8.34,-0.73,-6.33,0,0,1,16
-6.24,-0.64,-4.86,0,0,1,16
-5.87,-0.7,-5.35,0,0,1,16
-7.7,-0.07,-5.79,0,0,1,16
-8.27,1.13,-5.62,0,0,1,16
-9.04,2.51,-4.87,0,0,1,16
-9.62,2.9,-5.19,0,0,1,16
-9.71,1.9,-6.84,0,0,1,16
-8.97,1.39,-8.19,0,0,1,16
-7.84,1.57,-7.2,0,0,1,16
-7.06,1.84,-5.96,0,0,1,16
-6.23,1.91,-5.27,0,0,1,16
-6.08,1.38,-5.63,0,0,1,16
-7.01,0.5,-7.05,0,0,1,16
-7.08,0.91,-7.52,0,0,1,16
-6.84,1.86,-7.57,0,0,1,16
-6.08,2.77,-7.17,0,0,1,16
-5.71,3.44,-5.94,0,0,1,16
-6.11,4.18,-5.13,0,0,1,16
-9.07,3.59,-5.17,0,0,1,16
-9.33,3.89,-3.99,0,0,1,16
-8.12,4.96,-2.78,0,0,1,16
-8.2,4.24,-3.52,0,0,1,16
-8.72,2.39,-6.42,0,0,1,16
-8.94,0.29,-7.03,0,0,1,16
-8.78,0.39,-5.83,0,0,1,16
-8.31,1.88,-4.18,0,0,1,16
-8.74,2.58,-2.96,0,0,1,16
-7.81,2.84,-3.02,0,0,1,16
-7.13,3.04,-3.75,0,0,1,16
-7.26,4.11,-4.61,0,0,1,16
-7.78,5.08,-5.6,0,0,1,16
-7.7,5.6,-5.33,0,0,1,16
-7.88,5.39,-3.39,0,0,1,16
-7.96,6.01,-2.74,0,0,1,16
-8.48,6.92,-4.18,0,0,1,16
-9.04,6.98,-5.3,0,0,1,16
-9.21,6.65,-5.63,0,0,1,16
-8.49,5.55,-4.85,0,0,1,16
-7.68,4.86,-3.48,0,0,1,16
-7.28,4.67,-2.35,0,0,1,16
-7.02,4.98,-2.53,0,0,1,16
-7.23,4.86,-2.45,0,0,1,16
-7.48,4.24,-2.46,0,0,1,16
-7.58,3.11,-2.56,0,0,1,16
-7.75,2.05,-2.92,0,0,1,16
-7.95,1.71,-3.51,0,0,1,16
-8.04,2.16,-3.67,0,0,1,16
-8.18,3.25,-3.45,0,0,1,16
-8.24,3.98,-3.41,0,0,1,16
-8.17,4.4,-3.33,0,0,1,16
-7.83,4.39,-3.25,0,0,1,16
-7.48,4.28,-2.79,0,0,1,16
-7.87,3.95,-2.33,0,0,1,16
-10.51,3.26,-3.81,0,0,1,16
-13.73,1.95,-7.92,0,0,1,16
-11.04,1.26,-7.57,0,0,1,16
-7.95,0.43,-2.51,0,0,1,16
-6.5,0.64,-0.14,0,0,1,16
-6.79,1.98,-1.13,0,0,1,16
-7.98,2.22,-3.52,0,0,1,16
-9.17,0.26,-6.0,0,0,1,16
-9.24,-2.43,-7.12,0,0,1,16
-9.21,-3.62,-7.28,0,0,1,16
-7.87,-2.1,-5.79,0,0,1,16
-8.19,-0.07,-4.01,0,0,1,16
-7.94,1.3,-4.09,0,0,1,16
-7.07,0.8,-4.6,0,0,1,16
-7.55,-1.15,-4.87,0,0,1,16
-7.88,-2.16,-6.21,0,0,1,16
-8.18,-0.92,-7.13,0,0,1,16
-8.76,1.01,-7.36,0,0,1,16
-8.93,2.81,-7.47,0,0,1,16
-7.88,3.78,-5.84,0,0,1,16
-7.07,3.12,-3.74,0,0,1,16
-7.3,1.14,-3.52,0,0,1,16
-7.31,-1.23,-4.49,0,0,1,16
-6.61,-2.85,-5.32,0,0,1,16
-5.68,-2.93,-5.4,0,0,1,16
-6.44,-1.56,-4.94,0,0,1,16
-8.03,0.83,-3.76,0,0,1,16
-7.59,2.27,-3.41,0,0,1,16
-9.18,2.86,-2.97,0,0,1,16
-7.72,3.51,-2.81,0,0,1,16
-7.64,0.91,-4.04,0,0,1,16
-7.94,-0.95,-4.13,0,0,1,16
-8.29,-1.72,-4.08,0,0,1,16
-9.25,-1.85,-4.08,0,0,1,16
-9.08,-1.26,-2.66,0,0,1,16
-7.95,-1.31,-2.63,0,0,1,16
-7.28,4.67,-2.35,0,0,1,17
-7.02,4.98,-2.53,0,0,1,17
-7.23,4.86,-2.45,0,0,1,17
-7.48,4.24,-2.46,0,0,1,17
-7.58,3.11,-2.56,0,0,1,17
-7.75,2.05,-2.92,0,0,1,17
-7.95,1.71,-3.51,0,0,1,17
-8.04,2.16,-3.67,0,0,1,17
-8.18,3.25,-3.45,0,0,1,17
-8.24,3.98,-3.41,0,0,1,17
-8.17,4.4,-3.33,0,0,1,17
-7.83,4.39,-3.25,0,0,1,17
-7.48,4.28,-2.79,0,0,1,17
-7.87,3.95,-2.33,0,0,1,17
-10.51,3.26,-3.81,0,0,1,17
-13.73,1.95,-7.92,0,0,1,17
-11.04,1.26,-7.57,0,0,1,17
-7.95,0.43,-2.51,0,0,1,17
-6.5,0.64,-0.14,0,0,1,17
-6.79,1.98,-1.13,0,0,1,17
-7.98,2.22,-3.52,0,0,1,17
-9.17,0.26,-6.0,0,0,1,17
-9.24,-2.43,-7.12,0,0,1,17
-9.21,-3.62,-7.28,0,0,1,17
-7.87,-2.1,-5.79,0,0,1,17
-8.19,-0.07,-4.01,0,0,1,17
-7.94,1.3,-4.09,0,0,1,17
-7.07,0.8,-4.6,0,0,1,17
-7.55,-1.15,-4.87,0,0,1,17
-7.88,-2.16,-6.21,0,0,1,17
-8.18,-0.92,-7.13,0,0,1,17
-8.76,1.01,-7.36,0,0,1,17
-8.93,2.81,-7.47,0,0,1,17
-7.88,3.78,-5.84,0,0,1,17
-7.07,3.12,-3.74,0,0,1,17
-7.3,1.14,-3.52,0,0,1,17
-7.31,-1.23,-4.49,0,0,1,17
-6.61,-2.85,-5.32,0,0,1,17
-5.68,-2.93,-5.4,0,0,1,17
-6.44,-1.56,-4.94,0,0,1,17
-8.03,0.83,-3.76,0,0,1,17
-7.59,2.27,-3.41,0,0,1,17
-9.18,2.86,-2.97,0,0,1,17
-7.72,3.51,-2.81,0,0,1,17
-7.64,0.91,-4.04,0,0,1,17
-7.94,-0.95,-4.13,0,0,1,17
-8.29,-1.72,-4.08,0,0,1,17
-9.25,-1.85,-4.08,0,0,1,17
-9.08,-1.26,-2.66,0,0,1,17
-7.95,-1.31,-2.63,0,0,1,17
-8.99,-0.79,-3.66,0,0,1,17
-9.33,0.9,-4.46,0,0,1,17
-8.97,1.51,-3.83,0,0,1,17
-7.87,1.25,-2.27,0,0,1,17
-7.63,0.35,-1.34,0,0,1,17
-8.91,-0.25,-1.13,0,0,1,17
-9.63,-0.31,-2.04,0,0,1,17
-8.89,-0.24,-2.69,0,0,1,17
-8.63,0.06,-3.05,0,0,1,17
-9.06,0.11,-2.54,0,0,1,17
-8.84,0.55,-2.12,0,0,1,17
-9.55,0.48,-2.41,0,0,1,17
-10.08,0.13,-3.68,0,0,1,17
-10.07,0.11,-3.79,0,0,1,17
-10.08,0.51,-2.7,0,0,1,17
-9.85,0.91,-2.05,0,0,1,17
-9.29,0.63,-2.08,0,0,1,17
-8.95,0.04,-2.49,0,0,1,17
-9.42,-0.35,-2.97,0,0,1,17
-9.6,-0.02,-3.27,0,0,1,17
-9.66,0.28,-3.31,0,0,1,17
-9.55,1.11,-2.6,0,0,1,17
-9.47,1.04,-2.12,0,0,1,17
-9.39,0.49,-2.52,0,0,1,17
-9.7,-0.21,-3.14,0,0,1,17
-9.65,-0.0,-3.54,0,0,1,17
-10.2,0.51,-3.28,0,0,1,17
-10.18,1.01,-2.72,0,0,1,17
-9.96,0.9,-2.35,0,0,1,17
-9.56,0.48,-2.41,0,0,1,17
-9.23,-0.04,-2.91,0,0,1,17
-9.07,-0.27,-2.99,0,0,1,17
-9.3,0.44,-2.49,0,0,1,17
-9.93,0.97,-2.68,0,0,1,17
-10.44,0.86,-3.37,0,0,1,17
-10.51,0.2,-3.91,0,0,1,17
-9.98,0.54,-3.8,0,0,1,17
-10.11,1.61,-3.06,0,0,1,17
-10.22,1.74,-3.08,0,0,1,17
-10.56,0.84,-3.23,0,0,1,17
-10.64,0.18,-3.56,0,0,1,17
-10.86,0.51,-3.61,0,0,1,17
-10.91,1.32,-3.44,0,0,1,17
-10.84,1.55,-3.45,0,0,1,17
-10.81,1.35,-3.68,0,0,1,17
-10.77,1.11,-3.78,0,0,1,17
-10.34,0.48,-3.4,0,0,1,17
-9.6,0.29,-2.97,0,0,1,17
-9.08,0.59,-2.77,0,0,1,17
-8.98,1.16,-2.98,0,0,1,17
-8.99,-0.79,-3.66,0,0,1,18
-9.33,0.9,-4.46,0,0,1,18
-8.97,1.51,-3.83,0,0,1,18
-7.87,1.25,-2.27,0,0,1,18
-7.63,0.35,-1.34,0,0,1,18
-8.91,-0.25,-1.13,0,0,1,18
-9.63,-0.31,-2.04,0,0,1,18
-8.89,-0.24,-2.69,0,0,1,18
-8.63,0.06,-3.05,0,0,1,18
-9.06,0.11,-2.54,0,0,1,18
-8.84,0.55,-2.12,0,0,1,18
-9.55,0.48,-2.41,0,0,1,18
-10.08,0.13,-3.68,0,0,1,18
-10.07,0.11,-3.79,0,0,1,18
-10.08,0.51,-2.7,0,0,1,18
-9.85,0.91,-2.05,0,0,1,18
-9.29,0.63,-2.08,0,0,1,18
-8.95,0.04,-2.49,0,0,1,18
-9.42,-0.35,-2.97,0,0,1,18
-9.6,-0.02,-3.27,0,0,1,18
-9.66,0.28,-3.31,0,0,1,18
-9.55,1.11,-2.6,0,0,1,18
-9.47,1.04,-2.12,0,0,1,18
-9.39,0.49,-2.52,0,0,1,18
-9.7,-0.21,-3.14,0,0,1,18
-9.65,-0.0,-3.54,0,0,1,18
-10.2,0.51,-3.28,0,0,1,18
-10.18,1.01,-2.72,0,0,1,18
-9.96,0.9,-2.35,0,0,1,18
-9.56,0.48,-2.41,0,0,1,18
-9.23,-0.04,-2.91,0,0,1,18
-9.07,-0.27,-2.99,0,0,1,18
-9.3,0.44,-2.49,0,0,1,18
-9.93,0.97,-2.68,0,0,1,18
-10.44,0.86,-3.37,0,0,1,18
-10.51,0.2,-3.91,0,0,1,18
-9.98,0.54,-3.8,0,0,1,18
-10.11,1.61,-3.06,0,0,1,18
-10.22,1.74,-3.08,0,0,1,18
-10.56,0.84,-3.23,0,0,1,18
-10.64,0.18,-3.56,0,0,1,18
-10.86,0.51,-3.61,0,0,1,18
-10.91,1.32,-3.44,0,0,1,18
-10.84,1.55,-3.45,0,0,1,18
-10.81,1.35,-3.68,0,0,1,18
-10.77,1.11,-3.78,0,0,1,18
-10.34,0.48,-3.4,0,0,1,18
-9.6,0.29,-2.97,0,0,1,18
-9.08,0.59,-2.77,0,0,1,18
-8.98,1.16,-2.98,0,0,1,18
-9.06,1.34,-2.88,0,0,1,18
-8.58,1.25,-2.82,0,0,1,18
-8.09,1.09,-2.66,0,0,1,18
-7.99,0.91,-2.49,0,0,1,18
-8.22,1.0,-2.88,0,0,1,18
-8.46,1.08,-3.01,0,0,1,18
-8.51,0.94,-2.86,0,0,1,18
-8.49,0.86,-2.7,0,0,1,18
-8.69,0.84,-2.89,0,0,1,18
-9.17,1.04,-3.33,0,0,1,18
-9.42,1.09,-3.45,0,0,1,18
-9.59,1.06,-3.2,0,0,1,18
-9.78,1.06,-3.18,0,0,1,18
-9.94,0.91,-3.48,0,0,1,18
-10.16,0.8,-3.6,0,0,1,18
-10.44,0.89,-3.59,0,0,1,18
-11.11,1.11,-3.7,0,0,1,18
-12.21,1.35,-4.4,0,0,1,18
-13.75,1.37,-5.07,0,0,1,18
-13.99,1.57,-4.91,0,0,1,18
-14.17,0.82,-3.48,0,0,1,18
-13.52,-0.4,-3.5,0,0,1,18
-13.26,-0.9,-4.49,0,0,1,18
-13.09,-0.67,-5.08,0,0,1,18
-11.96,0.84,-4.2,0,0,1,18
-11.25,1.81,-2.64,0,0,1,18
-10.97,1.04,-2.7,0,0,1,18
-9.17,-0.96,-2.54,0,0,1,18
-10.03,-0.87,-2.42,0,0,1,18
-10.14,-1.02,-3.4,0,0,1,18
-8.4,-1.42,-2.64,0,0,1,18
-8.95,-1.03,-2.44,0,0,1,18
-9.66,-0.24,-2.75,0,0,1,18
-8.45,0.35,-1.68,0,0,1,18
-7.99,-0.63,-2.03,0,0,1,18
-8.76,-1.07,-2.85,0,0,1,18
-9.28,-1.09,-3.25,0,0,1,18
-8.79,-0.82,-2.69,0,0,1,18
-8.09,-0.86,-3.07,0,0,1,18
-7.27,-0.79,-3.39,0,0,1,18
-7.22,-0.85,-2.81,0,0,1,18
-7.07,-0.99,-2.78,0,0,1,18
-6.99,-0.96,-3.04,0,0,1,18
-7.2,-0.87,-3.34,0,0,1,18
-7.47,-0.88,-3.22,0,0,1,18
-7.57,-1.4,-3.53,0,0,1,18
-7.47,-1.73,-3.84,0,0,1,18
-7.69,-1.89,-4.12,0,0,1,18
-7.73,-1.2,-4.29,0,0,1,18
-7.61,-0.86,-4.12,0,0,1,18
-9.06,1.34,-2.88,0,0,1,19
-8.58,1.25,-2.82,0,0,1,19
-8.09,1.09,-2.66,0,0,1,19
-7.99,0.91,-2.49,0,0,1,19
-8.22,1.0,-2.88,0,0,1,19
-8.46,1.08,-3.01,0,0,1,19
-8.51,0.94,-2.86,0,0,1,19
-8.49,0.86,-2.7,0,0,1,19
-8.69,0.84,-2.89,0,0,1,19
-9.17,1.04,-3.33,0,0,1,19
-9.42,1.09,-3.45,0,0,1,19
-9.59,1.06,-3.2,0,0,1,19
-9.78,1.06,-3.18,0,0,1,19
-9.94,0.91,-3.48,0,0,1,19
-10.16,0.8,-3.6,0,0,1,19
-10.44,0.89,-3.59,0,0,1,19
-11.11,1.11,-3.7,0,0,1,19
-12.21,1.35,-4.4,0,0,1,19
-13.75,1.37,-5.07,0,0,1,19
-13.99,1.57,-4.91,0,0,1,19
-14.17,0.82,-3.48,0,0,1,19
-13.52,-0.4,-3.5,0,0,1,19
-13.26,-0.9,-4.49,0,0,1,19
-13.09,-0.67,-5.08,0,0,1,19
-11.96,0.84,-4.2,0,0,1,19
-11.25,1.81,-2.64,0,0,1,19
-10.97,1.04,-2.7,0,0,1,19
-9.17,-0.96,-2.54,0,0,1,19
-10.03,-0.87,-2.42,0,0,1,19
-10.14,-1.02,-3.4,0,0,1,19
-8.4,-1.42,-2.64,0,0,1,19
-8.95,-1.03,-2.44,0,0,1,19
-9.66,-0.24,-2.75,0,0,1,19
-8.45,0.35,-1.68,0,0,1,19
-7.99,-0.63,-2.03,0,0,1,19
-8.76,-1.07,-2.85,0,0,1,19
-9.28,-1.09,-3.25,0,0,1,19
-8.79,-0.82,-2.69,0,0,1,19
-8.09,-0.86,-3.07,0,0,1,19
-7.27,-0.79,-3.39,0,0,1,19
-7.22,-0.85,-2.81,0,0,1,19
-7.07,-0.99,-2.78,0,0,1,19
-6.99,-0.96,-3.04,0,0,1,19
-7.2,-0.87,-3.34,0,0,1,19
-7.47,-0.88,-3.22,0,0,1,19
-7.57,-1.4,-3.53,0,0,1,19
-7.47,-1.73,-3.84,0,0,1,19
-7.69,-1.89,-4.12,0,0,1,19
-7.73,-1.2,-4.29,0,0,1,19
-7.61,-0.86,-4.12,0,0,1,19
-7.0,-0.57,-3.54,0,0,1,19
-6.68,-0.83,-3.12,0,0,1,19
-6.56,-1.04,-3.53,0,0,1,19
-6.99,-0.95,-4.12,0,0,1,19
-6.71,-0.62,-4.45,0,0,1,19
-7.0,-0.76,-4.18,0,0,1,19
-7.06,-1.16,-4.28,0,0,1,19
-6.7,-1.77,-4.71,0,0,1,19
-6.35,-2.16,-4.58,0,0,1,19
-6.73,-2.22,-4.11,0,0,1,19
-7.04,-2.32,-4.36,0,0,1,19
-7.49,-2.32,-4.76,0,0,1,19
-8.67,-2.1,-5.77,0,0,1,19
-8.97,-1.43,-7.02,0,0,1,19
-8.86,-0.88,-6.6,0,0,1,19
-8.07,-0.21,-4.85,0,0,1,19
-7.36,0.04,-4.28,0,0,1,19
-7.35,0.17,-4.73,0,0,1,19
-7.75,0.38,-5.54,0,0,1,19
-8.13,0.36,-6.13,0,0,1,19
-8.17,0.22,-6.91,0,0,1,19
-7.82,0.6,-6.86,0,0,1,19
-7.86,1.16,-6.12,0,0,1,19
-7.84,1.54,-5.16,0,0,1,19
-7.68,1.35,-5.25,0,0,1,19
-7.75,0.95,-5.99,0,0,1,19
-7.9,0.95,-6.5,0,0,1,19
-7.99,1.77,-6.77,0,0,1,19
-8.12,2.59,-6.48,0,0,1,19
-7.74,3.11,-5.8,0,0,1,19
-7.43,2.96,-5.36,0,0,1,19
-7.18,2.62,-5.6,0,0,1,19
-7.48,2.57,-5.97,0,0,1,19
-7.53,2.75,-6.05,0,0,1,19
-7.45,2.87,-5.86,0,0,1,19
-7.48,2.88,-5.71,0,0,1,19
-7.88,2.63,-5.74,0,0,1,19
-7.94,2.1,-5.71,0,0,1,19
-7.88,1.68,-5.8,0,0,1,19
-7.77,1.52,-5.87,0,0,1,19
-7.53,1.76,-5.61,0,0,1,19
-7.85,2.08,-5.52,0,0,1,19
-7.67,2.14,-5.68,0,0,1,19
-7.47,1.66,-5.89,0,0,1,19
-7.21,1.36,-6.26,0,0,1,19
-7.41,1.6,-6.23,0,0,1,19
-7.57,1.8,-6.36,0,0,1,19
-8.81,2.57,-5.3,0,0,1,19
-8.01,2.99,-5.38,0,0,1,19
-8.71,2.22,-6.88,0,0,1,19
-7.0,-0.57,-3.54,0,0,1,20
-6.68,-0.83,-3.12,0,0,1,20
-6.56,-1.04,-3.53,0,0,1,20
-6.99,-0.95,-4.12,0,0,1,20
-6.71,-0.62,-4.45,0,0,1,20
-7.0,-0.76,-4.18,0,0,1,20
-7.06,-1.16,-4.28,0,0,1,20
-6.7,-1.77,-4.71,0,0,1,20
-6.35,-2.16,-4.58,0,0,1,20
-6.73,-2.22,-4.11,0,0,1,20
-7.04,-2.32,-4.36,0,0,1,20
-7.49,-2.32,-4.76,0,0,1,20
-8.67,-2.1,-5.77,0,0,1,20
-8.97,-1.43,-7.02,0,0,1,20
-8.86,-0.88,-6.6,0,0,1,20
-8.07,-0.21,-4.85,0,0,1,20
-7.36,0.04,-4.28,0,0,1,20
-7.35,0.17,-4.73,0,0,1,20
-7.75,0.38,-5.54,0,0,1,20
-8.13,0.36,-6.13,0,0,1,20
-8.17,0.22,-6.91,0,0,1,20
-7.82,0.6,-6.86,0,0,1,20
-7.86,1.16,-6.12,0,0,1,20
-7.84,1.54,-5.16,0,0,1,20
-7.68,1.35,-5.25,0,0,1,20
-7.75,0.95,-5.99,0,0,1,20
-7.9,0.95,-6.5,0,0,1,20
-7.99,1.77,-6.77,0,0,1,20
-8.12,2.59,-6.48,0,0,1,20
-7.74,3.11,-5.8,0,0,1,20
-7.43,2.96,-5.36,0,0,1,20
-7.18,2.62,-5.6,0,0,1,20
-7.48,2.57,-5.97,0,0,1,20
-7.53,2.75,-6.05,0,0,1,20
-7.45,2.87,-5.86,0,0,1,20
-7.48,2.88,-5.71,0,0,1,20
-7.88,2.63,-5.74,0,0,1,20
-7.94,2.1,-5.71,0,0,1,20
-7.88,1.68,-5.8,0,0,1,20
-7.77,1.52,-5.87,0,0,1,20
-7.53,1.76,-5.61,0,0,1,20
-7.85,2.08,-5.52,0,0,1,20
-7.67,2.14,-5.68,0,0,1,20
-7.47,1.66,-5.89,0,0,1,20
-7.21,1.36,-6.26,0,0,1,20
-7.41,1.6,-6.23,0,0,1,20
-7.57,1.8,-6.36,0,0,1,20
-8.81,2.57,-5.3,0,0,1,20
-8.01,2.99,-5.38,0,0,1,20
-8.71,2.22,-6.88,0,0,1,20
-10.55,2.0,-7.66,0,0,1,20
-9.85,1.86,-6.85,0,0,1,20
-9.06,1.71,-6.09,0,0,1,20
-8.54,1.82,-5.82,0,0,1,20
-8.47,1.66,-6.06,0,0,1,20
-8.77,1.23,-5.69,0,0,1,20
-8.57,0.84,-4.48,0,0,1,20
-8.08,0.58,-3.72,0,0,1,20
-7.65,-0.42,-3.51,0,0,1,20
-7.27,-1.27,-3.24,0,0,1,20
-6.85,-2.05,-1.99,0,0,1,20
-7.93,-1.81,-3.42,0,0,1,20
-9.45,0.08,-3.88,0,0,1,20
-10.74,2.95,-5.13,0,0,1,20
-11.77,4.31,-5.7,0,0,1,20
-10.46,4.33,-6.05,0,0,1,20
-9.32,2.79,-5.13,0,0,1,20
-7.98,0.86,-3.03,0,0,1,20
-7.07,0.04,-2.61,0,0,1,20
-7.0,0.68,-2.9,0,0,1,20
-7.76,1.38,-3.25,0,0,1,20
-8.11,1.83,-3.59,0,0,1,20
-7.75,2.1,-3.51,0,0,1,20
-7.29,2.24,-3.26,0,0,1,20
-6.84,2.98,-3.2,0,0,1,20
-6.78,3.59,-3.32,0,0,1,20
-7.28,3.64,-3.28,0,0,1,20
-8.21,2.84,-3.61,0,0,1,20
-7.54,2.14,-4.41,0,0,1,20
-7.17,1.45,-4.58,0,0,1,20
-10.54,0.74,-3.92,0,0,1,20
-13.62,2.07,-7.76,0,0,1,20
-13.01,3.35,-10.83,0,0,1,20
-9.31,3.17,-6.79,0,0,1,20
-7.66,1.87,-0.53,0,0,1,20
-7.85,0.75,-0.48,0,0,1,20
-8.16,-0.3,-2.88,0,0,1,20
-8.37,-1.51,-4.68,0,0,1,20
-8.4,-1.49,-5.67,0,0,1,20
-8.15,-0.26,-6.45,0,0,1,20
-8.04,1.66,-5.88,0,0,1,20
-7.73,2.2,-4.99,0,0,1,20
-7.56,1.18,-4.77,0,0,1,20
-7.59,-0.06,-4.95,0,0,1,20
-7.33,-0.21,-5.25,0,0,1,20
-8.04,1.13,-5.87,0,0,1,20
-8.41,2.01,-6.53,0,0,1,20
-9.15,1.88,-6.84,0,0,1,20
-8.65,1.68,-6.03,0,0,1,20
-7.87,1.46,-5.16,0,0,1,20
-10.55,2.0,-7.66,0,0,1,21
-9.85,1.86,-6.85,0,0,1,21
-9.06,1.71,-6.09,0,0,1,21
-8.54,1.82,-5.82,0,0,1,21
-8.47,1.66,-6.06,0,0,1,21
-8.77,1.23,-5.69,0,0,1,21
-8.57,0.84,-4.48,0,0,1,21
-8.08,0.58,-3.72,0,0,1,21
-7.65,-0.42,-3.51,0,0,1,21
-7.27,-1.27,-3.24,0,0,1,21
-6.85,-2.05,-1.99,0,0,1,21
-7.93,-1.81,-3.42,0,0,1,21
-9.45,0.08,-3.88,0,0,1,21
-10.74,2.95,-5.13,0,0,1,21
-11.77,4.31,-5.7,0,0,1,21
-10.46,4.33,-6.05,0,0,1,21
-9.32,2.79,-5.13,0,0,1,21
-7.98,0.86,-3.03,0,0,1,21
-7.07,0.04,-2.61,0,0,1,21
-7.0,0.68,-2.9,0,0,1,21
-7.76,1.38,-3.25,0,0,1,21
-8.11,1.83,-3.59,0,0,1,21
-7.75,2.1,-3.51,0,0,1,21
-7.29,2.24,-3.26,0,0,1,21
-6.84,2.98,-3.2,0,0,1,21
-6.78,3.59,-3.32,0,0,1,21
-7.28,3.64,-3.28,0,0,1,21
-8.21,2.84,-3.61,0,0,1,21
-7.54,2.14,-4.41,0,0,1,21
-7.17,1.45,-4.58,0,0,1,21
-10.54,0.74,-3.92,0,0,1,21
-13.62,2.07,-7.76,0,0,1,21
-13.01,3.35,-10.83,0,0,1,21
-9.31,3.17,-6.79,0,0,1,21
-7.66,1.87,-0.53,0,0,1,21
-7.85,0.75,-0.48,0,0,1,21
-8.16,-0.3,-2.88,0,0,1,21
-8.37,-1.51,-4.68,0,0,1,21
-8.4,-1.49,-5.67,0,0,1,21
-8.15,-0.26,-6.45,0,0,1,21
-8.04,1.66,-5.88,0,0,1,21
-7.73,2.2,-4.99,0,0,1,21
-7.56,1.18,-4.77,0,0,1,21
-7.59,-0.06,-4.95,0,0,1,21
-7.33,-0.21,-5.25,0,0,1,21
-8.04,1.13,-5.87,0,0,1,21
-8.41,2.01,-6.53,0,0,1,21
-9.15,1.88,-6.84,0,0,1,21
-8.65,1.68,-6.03,0,0,1,21
-7.87,1.46,-5.16,0,0,1,21
-7.11,1.18,-4.5,0,0,1,21
-7.37,1.05,-4.65,0,0,1,21
-7.55,1.14,-5.45,0,0,1,21
-7.7,1.37,-6.16,0,0,1,21
-7.85,2.06,-6.11,0,0,1,21
-7.76,2.7,-5.66,0,0,1,21
-7.53,2.74,-5.43,0,0,1,21
-7.51,2.44,-5.65,0,0,1,21
-7.75,2.4,-5.71,0,0,1,21
-7.56,2.32,-5.66,0,0,1,21
-7.24,2.15,-5.15,0,0,1,21
-7.26,2.27,-5.28,0,0,1,21
-7.7,2.29,-5.83,0,0,1,21
-7.92,1.96,-6.2,0,0,1,21
-7.81,1.62,-6.19,0,0,1,21
-7.55,1.6,-5.98,0,0,1,21
-7.3,1.9,-5.94,0,0,1,21
-7.07,2.4,-6.07,0,0,1,21
-6.57,2.36,-6.47,0,0,1,21
-10.3,2.68,-4.91,0,0,1,21
-10.29,4.75,-4.99,0,0,1,21
-10.88,5.2,-5.09,0,0,1,21
-10.67,3.57,-6.2,0,0,1,21
-9.88,0.14,-7.24,0,0,1,21
-10.14,-2.9,-6.5,0,0,1,21
-9.2,-3.57,-5.48,0,0,1,21
-7.35,-1.19,-3.44,0,0,1,21
-5.16,2.96,0.88,0,0,1,21
-6.45,5.58,-0.33,0,0,1,21
-10.44,5.25,-4.66,0,0,1,21
-12.41,3.31,-8.12,0,0,1,21
-11.35,1.25,-7.66,0,0,1,21
-8.79,-0.23,-3.74,0,0,1,21
-6.93,0.01,-1.58,0,0,1,21
-6.8,1.04,-2.09,0,0,1,21
-7.64,1.9,-3.99,0,0,1,21
-8.36,2.28,-4.9,0,0,1,21
-8.3,2.25,-4.32,0,0,1,21
-7.86,2.22,-3.78,0,0,1,21
-7.7,2.58,-3.61,0,0,1,21
-7.89,3.28,-3.75,0,0,1,21
-7.72,3.53,-3.74,0,0,1,21
-7.58,3.54,-3.41,0,0,1,21
-7.41,3.03,-3.22,0,0,1,21
-7.3,2.45,-3.42,0,0,1,21
-7.51,1.92,-3.73,0,0,1,21
-8.18,1.6,-4.14,0,0,1,21
-8.54,2.0,-4.41,0,0,1,21
-8.91,2.66,-3.99,0,0,1,21
-8.39,3.29,-3.73,0,0,1,21
-7.11,1.18,-4.5,0,0,1,22
-7.37,1.05,-4.65,0,0,1,22
-7.55,1.14,-5.45,0,0,1,22
-7.7,1.37,-6.16,0,0,1,22
-7.85,2.06,-6.11,0,0,1,22
-7.76,2.7,-5.66,0,0,1,22
-7.53,2.74,-5.43,0,0,1,22
-7.51,2.44,-5.65,0,0,1,22
-7.75,2.4,-5.71,0,0,1,22
-7.56,2.32,-5.66,0,0,1,22
-7.24,2.15,-5.15,0,0,1,22
-7.26,2.27,-5.28,0,0,1,22
-7.7,2.29,-5.83,0,0,1,22
-7.92,1.96,-6.2,0,0,1,22
-7.81,1.62,-6.19,0,0,1,22
-7.55,1.6,-5.98,0,0,1,22
-7.3,1.9,-5.94,0,0,1,22
-7.07,2.4,-6.07,0,0,1,22
-6.57,2.36,-6.47,0,0,1,22
-10.3,2.68,-4.91,0,0,1,22
-10.29,4.75,-4.99,0,0,1,22
-10.88,5.2,-5.09,0,0,1,22
-10.67,3.57,-6.2,0,0,1,22
-9.88,0.14,-7.24,0,0,1,22
-10.14,-2.9,-6.5,0,0,1,22
-9.2,-3.57,-5.48,0,0,1,22
-7.35,-1.19,-3.44,0,0,1,22
-5.16,2.96,0.88,0,0,1,22
-6.45,5.58,-0.33,0,0,1,22
-10.44,5.25,-4.66,0,0,1,22
-12.41,3.31,-8.12,0,0,1,22
-11.35,1.25,-7.66,0,0,1,22
-8.79,-0.23,-3.74,0,0,1,22
-6.93,0.01,-1.58,0,0,1,22
-6.8,1.04,-2.09,0,0,1,22
-7.64,1.9,-3.99,0,0,1,22
-8.36,2.28,-4.9,0,0,1,22
-8.3,2.25,-4.32,0,0,1,22
-7.86,2.22,-3.78,0,0,1,22
-7.7,2.58,-3.61,0,0,1,22
-7.89,3.28,-3.75,0,0,1,22
-7.72,3.53,-3.74,0,0,1,22
-7.58,3.54,-3.41,0,0,1,22
-7.41,3.03,-3.22,0,0,1,22
-7.3,2.45,-3.42,0,0,1,22
-7.51,1.92,-3.73,0,0,1,22
-8.18,1.6,-4.14,0,0,1,22
-8.54,2.0,-4.41,0,0,1,22
-8.91,2.66,-3.99,0,0,1,22
-8.39,3.29,-3.73,0,0,1,22
-8.44,3.89,-4.0,0,0,1,22
-8.57,4.24,-4.74,0,0,1,22
-8.59,3.62,-4.85,0,0,1,22
-11.16,1.78,-4.77,0,0,1,22
-12.04,1.8,-7.85,0,0,1,22
-11.12,0.56,-9.39,0,0,1,22
-9.39,0.48,-3.76,0,0,1,22
-7.18,1.41,-1.46,0,0,1,22
-7.19,1.59,-1.68,0,0,1,22
-8.31,1.51,-4.71,0,0,1,22
-9.24,0.22,-5.6,0,0,1,22
-9.18,-0.9,-5.2,0,0,1,22
-8.84,-1.32,-4.65,0,0,1,22
-8.06,-0.82,-4.96,0,0,1,22
-7.69,-0.28,-4.32,0,0,1,22
-7.25,0.19,-4.6,0,0,1,22
-7.48,-0.02,-5.52,0,0,1,22
-8.46,-0.4,-5.42,0,0,1,22
-8.52,-0.23,-5.4,0,0,1,22
-8.02,0.62,-5.4,0,0,1,22
-8.16,0.64,-5.75,0,0,1,22
-8.22,0.75,-5.71,0,0,1,22
-8.1,0.85,-5.41,0,0,1,22
-7.93,1.04,-5.2,0,0,1,22
-7.92,1.1,-5.13,0,0,1,22
-7.75,1.64,-5.2,0,0,1,22
-8.04,2.43,-5.47,0,0,1,22
-8.17,3.11,-6.08,0,0,1,22
-8.24,3.35,-5.99,0,0,1,22
-8.26,3.06,-5.43,0,0,1,22
-8.12,2.28,-4.88,0,0,1,22
-7.63,1.66,-4.44,0,0,1,22
-7.4,1.52,-4.68,0,0,1,22
-7.68,1.68,-5.41,0,0,1,22
-7.97,2.09,-5.71,0,0,1,22
-7.91,2.63,-5.34,0,0,1,22
-7.93,2.39,-4.75,0,0,1,22
-7.52,1.65,-4.92,0,0,1,22
-7.03,0.47,-5.65,0,0,1,22
-9.43,-0.47,-4.76,0,0,1,22
-8.53,0.89,-3.42,0,0,1,22
-9.8,1.58,-3.18,0,0,1,22
-11.51,2.3,-4.45,0,0,1,22
-12.18,0.85,-7.59,0,0,1,22
-12.04,-1.5,-9.98,0,0,1,22
-10.2,-1.87,-8.36,0,0,1,22
-7.44,-0.74,-4.73,0,0,1,22
-5.9,0.2,-0.59,0,0,1,22
-6.28,1.71,-0.03,0,0,1,22
-7.97,2.33,-1.33,0,0,1,22
-8.44,3.89,-4.0,0,0,1,23
-8.57,4.24,-4.74,0,0,1,23
-8.59,3.62,-4.85,0,0,1,23
-11.16,1.78,-4.77,0,0,1,23
-12.04,1.8,-7.85,0,0,1,23
-11.12,0.56,-9.39,0,0,1,23
-9.39,0.48,-3.76,0,0,1,23
-7.18,1.41,-1.46,0,0,1,23
-7.19,1.59,-1.68,0,0,1,23
-8.31,1.51,-4.71,0,0,1,23
-9.24,0.22,-5.6,0,0,1,23
-9.18,-0.9,-5.2,0,0,1,23
-8.84,-1.32,-4.65,0,0,1,23
-8.06,-0.82,-4.96,0,0,1,23
-7.69,-0.28,-4.32,0,0,1,23
-7.25,0.19,-4.6,0,0,1,23
-7.48,-0.02,-5.52,0,0,1,23
-8.46,-0.4,-5.42,0,0,1,23
-8.52,-0.23,-5.4,0,0,1,23
-8.02,0.62,-5.4,0,0,1,23
-8.16,0.64,-5.75,0,0,1,23
-8.22,0.75,-5.71,0,0,1,23
-8.1,0.85,-5.41,0,0,1,23
-7.93,1.04,-5.2,0,0,1,23
-7.92,1.1,-5.13,0,0,1,23
-7.75,1.64,-5.2,0,0,1,23
-8.04,2.43,-5.47,0,0,1,23
-8.17,3.11,-6.08,0,0,1,23
-8.24,3.35,-5.99,0,0,1,23
-8.26,3.06,-5.43,0,0,1,23
-8.12,2.28,-4.88,0,0,1,23
-7.63,1.66,-4.44,0,0,1,23
-7.4,1.52,-4.68,0,0,1,23
-7.68,1.68,-5.41,0,0,1,23
-7.97,2.09,-5.71,0,0,1,23
-7.91,2.63,-5.34,0,0,1,23
-7.93,2.39,-4.75,0,0,1,23
-7.52,1.65,-4.92,0,0,1,23
-7.03,0.47,-5.65,0,0,1,23
-9.43,-0.47,-4.76,0,0,1,23
-8.53,0.89,-3.42,0,0,1,23
-9.8,1.58,-3.18,0,0,1,23
-11.51,2.3,-4.45,0,0,1,23
-12.18,0.85,-7.59,0,0,1,23
-12.04,-1.5,-9.98,0,0,1,23
-10.2,-1.87,-8.36,0,0,1,23
-7.44,-0.74,-4.73,0,0,1,23
-5.9,0.2,-0.59,0,0,1,23
-6.28,1.71,-0.03,0,0,1,23
-7.97,2.33,-1.33,0,0,1,23
-9.64,2.2,-3.07,0,0,1,23
-10.56,2.28,-4.67,0,0,1,23
-10.68,1.78,-5.55,0,0,1,23
-10.24,0.65,-4.69,0,0,1,23
-8.38,0.42,-2.76,0,0,1,23
-6.99,0.76,-0.47,0,0,1,23
-7.27,1.09,-0.64,0,0,1,23
-8.85,0.94,-1.9,0,0,1,23
-8.95,1.15,-1.98,0,0,1,23
-8.35,0.94,-1.41,0,0,1,23
-7.82,0.48,-1.85,0,0,1,23
-8.19,0.04,-2.44,0,0,1,23
-9.32,-0.56,-2.05,0,0,1,23
-10.01,-1.02,-3.17,0,0,1,23
-11.9,-2.32,-5.22,0,0,1,23
-11.67,-2.43,-6.84,0,0,1,23
-9.25,-2.1,-5.39,0,0,1,23
-8.02,-2.49,-1.62,0,0,1,23
-7.68,-1.51,-0.93,0,0,1,23
-8.08,-0.25,-1.88,0,0,1,23
-7.89,-0.34,-2.11,0,0,1,23
-8.55,-2.49,-2.81,0,0,1,23
-9.58,-4.22,-4.37,0,0,1,23
-10.25,-4.28,-4.96,0,0,1,23
-9.32,-2.68,-3.91,0,0,1,23
-8.63,-1.83,-2.64,0,0,1,23
-8.18,-1.57,-1.91,0,0,1,23
-8.07,-2.0,-2.34,0,0,1,23
-8.85,-2.89,-2.84,0,0,1,23
-8.8,-3.14,-3.07,0,0,1,23
-8.42,-3.3,-2.82,0,0,1,23
-8.84,-3.08,-3.11,0,0,1,23
-9.22,-3.12,-3.14,0,0,1,23
-8.84,-3.54,-2.49,0,0,1,23
-8.27,-3.97,-2.4,0,0,1,23
-8.26,-3.84,-2.31,0,0,1,23
-8.53,-3.78,-2.62,0,0,1,23
-8.64,-3.85,-2.79,0,0,1,23
-8.63,-3.99,-2.51,0,0,1,23
-8.3,-4.01,-2.26,0,0,1,23
-8.02,-3.81,-2.29,0,0,1,23
-8.1,-4.01,-2.46,0,0,1,23
-8.2,-4.46,-2.57,0,0,1,23
-7.98,-4.75,-2.19,0,0,1,23
-8.28,-4.78,-1.65,0,0,1,23
-8.74,-4.88,-2.03,0,0,1,23
-8.9,-5.06,-2.54,0,0,1,23
-8.44,-5.17,-2.47,0,0,1,23
-7.59,-5.0,-1.86,0,0,1,23
-6.96,-4.57,-1.3,0,0,1,23
-9.64,2.2,-3.07,0,0,1,24
-10.56,2.28,-4.67,0,0,1,24
-10.68,1.78,-5.55,0,0,1,24
-10.24,0.65,-4.69,0,0,1,24
-8.38,0.42,-2.76,0,0,1,24
-6.99,0.76,-0.47,0,0,1,24
-7.27,1.09,-0.64,0,0,1,24
-8.85,0.94,-1.9,0,0,1,24
-8.95,1.15,-1.98,0,0,1,24
-8.35,0.94,-1.41,0,0,1,24
-7.82,0.48,-1.85,0,0,1,24
-8.19,0.04,-2.44,0,0,1,24
-9.32,-0.56,-2.05,0,0,1,24
-10.01,-1.02,-3.17,0,0,1,24
-11.9,-2.32,-5.22,0,0,1,24
-11.67,-2.43,-6.84,0,0,1,24
-9.25,-2.1,-5.39,0,0,1,24
-8.02,-2.49,-1.62,0,0,1,24
-7.68,-1.51,-0.93,0,0,1,24
-8.08,-0.25,-1.88,0,0,1,24
-7.89,-0.34,-2.11,0,0,1,24
-8.55,-2.49,-2.81,0,0,1,24
-9.58,-4.22,-4.37,0,0,1,24
-10.25,-4.28,-4.96,0,0,1,24
-9.32,-2.68,-3.91,0,0,1,24
-8.63,-1.83,-2.64,0,0,1,24
-8.18,-1.57,-1.91,0,0,1,24
-8.07,-2.0,-2.34,0,0,1,24
-8.85,-2.89,-2.84,0,0,1,24
-8.8,-3.14,-3.07,0,0,1,24
-8.42,-3.3,-2.82,0,0,1,24
-8.84,-3.08,-3.11,0,0,1,24
-9.22,-3.12,-3.14,0,0,1,24
-8.84,-3.54,-2.49,0,0,1,24
-8.27,-3.97,-2.4,0,0,1,24
-8.26,-3.84,-2.31,0,0,1,24
-8.53,-3.78,-2.62,0,0,1,24
-8.64,-3.85,-2.79,0,0,1,24
-8.63,-3.99,-2.51,0,0,1,24
-8.3,-4.01,-2.26,0,0,1,24
-8.02,-3.81,-2.29,0,0,1,24
-8.1,-4.01,-2.46,0,0,1,24
-8.2,-4.46,-2.57,0,0,1,24
-7.98,-4.75,-2.19,0,0,1,24
-8.28,-4.78,-1.65,0,0,1,24
-8.74,-4.88,-2.03,0,0,1,24
-8.9,-5.06,-2.54,0,0,1,24
-8.44,-5.17,-2.47,0,0,1,24
-7.59,-5.0,-1.86,0,0,1,24
-6.96,-4.57,-1.3,0,0,1,24
-7.25,-4.37,-1.32,0,0,1,24
-7.92,-4.57,-1.65,0,0,1,24
-8.12,-5.08,-2.18,0,0,1,24
-8.11,-5.8,-2.2,0,0,1,24
-7.96,-6.16,-2.28,0,0,1,24
-7.96,-5.73,-2.13,0,0,1,24
-7.83,-4.98,-1.9,0,0,1,24
-7.54,-4.87,-1.63,0,0,1,24
-7.83,-5.5,-1.5,0,0,1,24
-8.19,-5.78,-2.06,0,0,1,24
-8.35,-5.87,-2.34,0,0,1,24
-8.23,-6.0,-2.0,0,0,1,24
-8.12,-5.93,-1.7,0,0,1,24
-8.23,-5.64,-1.86,0,0,1,24
-8.25,-5.74,-2.05,0,0,1,24
-8.21,-5.98,-2.13,0,0,1,24
-7.94,-5.87,-1.98,0,0,1,24
-7.87,-5.52,-1.92,0,0,1,24
-7.73,-5.27,-1.89,0,0,1,24
-7.62,-4.99,-1.75,0,0,1,24
-8.2,-4.77,-2.26,0,0,1,24
-8.93,-4.7,-3.0,0,0,1,24
-9.0,-5.16,-2.78,0,0,1,24
-8.16,-5.65,-1.67,0,0,1,24
-7.7,-5.94,-1.81,0,0,1,24
-7.86,-5.9,-2.44,0,0,1,24
-8.36,-5.31,-2.86,0,0,1,24
-8.7,-4.58,-3.03,0,0,1,24
-8.56,-4.28,-2.85,0,0,1,24
-8.46,-4.09,-2.68,0,0,1,24
-8.56,-3.98,-2.77,0,0,1,24
-8.38,-3.62,-2.93,0,0,1,24
-8.56,-3.44,-2.87,0,0,1,24
-8.49,-3.2,-2.76,0,0,1,24
-8.28,-3.01,-2.61,0,0,1,24
-8.32,-2.88,-2.79,0,0,1,24
-8.5,-2.87,-3.23,0,0,1,24
-8.73,-3.15,-3.28,0,0,1,24
-8.23,-2.93,-2.96,0,0,1,24
-8.27,-2.6,-2.7,0,0,1,24
-8.41,-2.29,-3.12,0,0,1,24
-8.89,-2.14,-3.29,0,0,1,24
-8.76,-1.69,-3.45,0,0,1,24
-8.76,-1.34,-3.53,0,0,1,24
-8.96,-1.21,-3.65,0,0,1,24
-9.41,-1.36,-3.64,0,0,1,24
-9.29,-0.86,-3.61,0,0,1,24
-8.86,-0.71,-3.4,0,0,1,24
-8.57,-0.33,-2.98,0,0,1,24
-8.23,0.07,-2.8,0,0,1,24
-7.25,-4.37,-1.32,0,0,1,25
-7.92,-4.57,-1.65,0,0,1,25
-8.12,-5.08,-2.18,0,0,1,25
-8.11,-5.8,-2.2,0,0,1,25
-7.96,-6.16,-2.28,0,0,1,25
-7.96,-5.73,-2.13,0,0,1,25
-7.83,-4.98,-1.9,0,0,1,25
-7.54,-4.87,-1.63,0,0,1,25
-7.83,-5.5,-1.5,0,0,1,25
-8.19,-5.78,-2.06,0,0,1,25
-8.35,-5.87,-2.34,0,0,1,25
-8.23,-6.0,-2.0,0,0,1,25
-8.12,-5.93,-1.7,0,0,1,25
-8.23,-5.64,-1.86,0,0,1,25
-8.25,-5.74,-2.05,0,0,1,25
-8.21,-5.98,-2.13,0,0,1,25
-7.94,-5.87,-1.98,0,0,1,25
-7.87,-5.52,-1.92,0,0,1,25
-7.73,-5.27,-1.89,0,0,1,25
-7.62,-4.99,-1.75,0,0,1,25
-8.2,-4.77,-2.26,0,0,1,25
-8.93,-4.7,-3.0,0,0,1,25
-9.0,-5.16,-2.78,0,0,1,25
-8.16,-5.65,-1.67,0,0,1,25
-7.7,-5.94,-1.81,0,0,1,25
-7.86,-5.9,-2.44,0,0,1,25
-8.36,-5.31,-2.86,0,0,1,25
-8.7,-4.58,-3.03,0,0,1,25
-8.56,-4.28,-2.85,0,0,1,25
-8.46,-4.09,-2.68,0,0,1,25
-8.56,-3.98,-2.77,0,0,1,25
-8.38,-3.62,-2.93,0,0,1,25
-8.56,-3.44,-2.87,0,0,1,25
-8.49,-3.2,-2.76,0,0,1,25
-8.28,-3.01,-2.61,0,0,1,25
-8.32,-2.88,-2.79,0,0,1,25
-8.5,-2.87,-3.23,0,0,1,25
-8.73,-3.15,-3.28,0,0,1,25
-8.23,-2.93,-2.96,0,0,1,25
-8.27,-2.6,-2.7,0,0,1,25
-8.41,-2.29,-3.12,0,0,1,25
-8.89,-2.14,-3.29,0,0,1,25
-8.76,-1.69,-3.45,0,0,1,25
-8.76,-1.34,-3.53,0,0,1,25
-8.96,-1.21,-3.65,0,0,1,25
-9.41,-1.36,-3.64,0,0,1,25
-9.29,-0.86,-3.61,0,0,1,25
-8.86,-0.71,-3.4,0,0,1,25
-8.57,-0.33,-2.98,0,0,1,25
-8.23,0.07,-2.8,0,0,1,25
-8.95,0.18,-3.19,0,0,1,25
-8.63,0.86,-3.43,0,0,1,25
-8.67,0.81,-3.08,0,0,1,25
-8.55,0.78,-2.8,0,0,1,25
-8.2,1.08,-2.76,0,0,1,25
-8.34,1.25,-3.04,0,0,1,25
-9.22,1.6,-3.56,0,0,1,25
-9.73,1.88,-3.78,0,0,1,25
-9.53,1.59,-3.7,0,0,1,25
-9.05,1.09,-3.38,0,0,1,25
-8.64,0.69,-3.24,0,0,1,25
-8.38,0.58,-3.08,0,0,1,25
-8.64,0.86,-3.16,0,0,1,25
-8.72,1.38,-3.59,0,0,1,25
-8.77,1.52,-3.81,0,0,1,25
-8.65,1.61,-3.87,0,0,1,25
-8.17,1.91,-3.45,0,0,1,25
-7.97,1.9,-3.27,0,0,1,25
-8.2,1.96,-3.42,0,0,1,25
-8.5,2.39,-3.55,0,0,1,25
-8.47,2.92,-3.9,0,0,1,25
-8.73,3.21,-3.61,0,0,1,25
-8.29,3.74,-3.82,0,0,1,25
-7.92,3.92,-3.39,0,0,1,25
-11.62,2.18,-4.67,0,0,1,25
-14.04,1.43,-8.36,0,0,1,25
-10.95,0.16,-7.95,0,0,1,25
-9.16,0.02,-4.02,0,0,1,25
-7.98,1.47,-1.33,0,0,1,25
-8.42,3.45,-1.55,0,0,1,25
-8.84,3.09,-3.59,0,0,1,25
-8.91,0.32,-4.86,0,0,1,25
-8.6,-0.8,-5.24,0,0,1,25
-8.74,-0.48,-5.32,0,0,1,25
-7.99,0.46,-4.18,0,0,1,25
-7.16,0.46,-3.68,0,0,1,25
-7.01,-0.14,-4.03,0,0,1,25
-7.97,-0.15,-4.82,0,0,1,25
-8.67,0.27,-5.35,0,0,1,25
-8.45,0.68,-5.11,0,0,1,25
-8.16,1.55,-4.92,0,0,1,25
-8.7,2.08,-5.26,0,0,1,25
-8.48,2.46,-5.64,0,0,1,25
-8.5,2.34,-5.82,0,0,1,25
-8.08,1.87,-5.5,0,0,1,25
-7.92,1.59,-5.14,0,0,1,25
-7.51,1.74,-4.86,0,0,1,25
-7.67,2.14,-4.77,0,0,1,25
-7.7,2.44,-5.0,0,0,1,25
-7.74,2.45,-4.96,0,0,1,25
-8.95,0.18,-3.19,0,0,1,26
-8.63,0.86,-3.43,0,0,1,26
-8.67,0.81,-3.08,0,0,1,26
-8.55,0.78,-2.8,0,0,1,26
-8.2,1.08,-2.76,0,0,1,26
-8.34,1.25,-3.04,0,0,1,26
-9.22,1.6,-3.56,0,0,1,26
-9.73,1.88,-3.78,0,0,1,26
-9.53,1.59,-3.7,0,0,1,26
-9.05,1.09,-3.38,0,0,1,26
-8.64,0.69,-3.24,0,0,1,26
-8.38,0.58,-3.08,0,0,1,26
-8.64,0.86,-3.16,0,0,1,26
-8.72,1.38,-3.59,0,0,1,26
-8.77,1.52,-3.81,0,0,1,26
-8.65,1.61,-3.87,0,0,1,26
-8.17,1.91,-3.45,0,0,1,26
-7.97,1.9,-3.27,0,0,1,26
-8.2,1.96,-3.42,0,0,1,26
-8.5,2.39,-3.55,0,0,1,26
-8.47,2.92,-3.9,0,0,1,26
-8.73,3.21,-3.61,0,0,1,26
-8.29,3.74,-3.82,0,0,1,26
-7.92,3.92,-3.39,0,0,1,26
-11.62,2.18,-4.67,0,0,1,26
-14.04,1.43,-8.36,0,0,1,26
-10.95,0.16,-7.95,0,0,1,26
-9.16,0.02,-4.02,0,0,1,26
-7.98,1.47,-1.33,0,0,1,26
-8.42,3.45,-1.55,0,0,1,26
-8.84,3.09,-3.59,0,0,1,26
-8.91,0.32,-4.86,0,0,1,26
-8.6,-0.8,-5.24,0,0,1,26
-8.74,-0.48,-5.32,0,0,1,26
-7.99,0.46,-4.18,0,0,1,26
-7.16,0.46,-3.68,0,0,1,26
-7.01,-0.14,-4.03,0,0,1,26
-7.97,-0.15,-4.82,0,0,1,26
-8.67,0.27,-5.35,0,0,1,26
-8.45,0.68,-5.11,0,0,1,26
-8.16,1.55,-4.92,0,0,1,26
-8.7,2.08,-5.26,0,0,1,26
-8.48,2.46,-5.64,0,0,1,26
-8.5,2.34,-5.82,0,0,1,26
-8.08,1.87,-5.5,0,0,1,26
-7.92,1.59,-5.14,0,0,1,26
-7.51,1.74,-4.86,0,0,1,26
-7.67,2.14,-4.77,0,0,1,26
-7.7,2.44,-5.0,0,0,1,26
-7.74,2.45,-4.96,0,0,1,26
-7.2,2.25,-4.92,0,0,1,26
-7.11,1.94,-4.98,0,0,1,26
-7.3,1.68,-5.36,0,0,1,26
-7.98,1.42,-5.66,0,0,1,26
-7.95,1.61,-5.47,0,0,1,26
-8.31,1.89,-5.58,0,0,1,26
-7.65,2.67,-5.6,0,0,1,26
-7.02,2.82,-5.69,0,0,1,26
-9.37,2.27,-4.56,0,0,1,26
-8.53,3.08,-4.07,0,0,1,26
-9.06,3.54,-5.42,0,0,1,26
-10.22,3.96,-7.42,0,0,1,26
-10.4,3.38,-9.44,0,0,1,26
-11.01,2.09,-10.39,0,0,1,26
-10.14,1.92,-8.14,0,0,1,26
-7.91,1.74,-3.01,0,0,1,26
-5.31,-3.21,-1.42,0,0,1,26
-6.77,-3.03,-3.57,0,0,1,26
-7.2,0.8,-3.29,0,0,1,26
-7.47,1.1,-0.97,0,0,1,26
-7.52,-0.06,-1.9,0,0,1,26
-7.88,-1.97,-2.8,0,0,1,26
-9.87,-1.17,-5.38,0,0,1,26
-12.0,2.91,-6.74,0,0,1,26
-11.86,5.68,-6.77,0,0,1,26
-10.39,5.49,-5.75,0,0,1,26
-9.14,4.08,-4.58,0,0,1,26
-7.35,2.59,-3.06,0,0,1,26
-6.94,1.61,-2.4,0,0,1,26
-7.05,1.72,-2.93,0,0,1,26
-7.16,2.18,-3.59,0,0,1,26
-7.29,2.67,-3.88,0,0,1,26
-7.11,2.91,-3.8,0,0,1,26
-6.94,2.91,-3.91,0,0,1,26
-7.19,2.76,-4.14,0,0,1,26
-8.69,2.64,-4.13,0,0,1,26
-8.1,3.15,-4.47,0,0,1,26
-7.83,3.75,-4.42,0,0,1,26
-7.63,4.27,-4.39,0,0,1,26
-7.62,4.68,-4.32,0,0,1,26
-8.23,4.89,-4.33,0,0,1,26
-8.75,5.43,-4.69,0,0,1,26
-8.29,5.76,-4.8,0,0,1,26
-10.2,3.78,-4.22,0,0,1,26
-11.04,2.75,-6.34,0,0,1,26
-11.45,0.41,-8.05,0,0,1,26
-10.07,-1.94,-5.55,0,0,1,26
-8.49,-1.95,-3.04,0,0,1,26
-7.75,1.45,-1.96,0,0,1,26
-7.85,3.32,-2.9,0,0,1,26
-7.2,2.25,-4.92,0,0,1,27
-7.11,1.94,-4.98,0,0,1,27
-7.3,1.68,-5.36,0,0,1,27
-7.98,1.42,-5.66,0,0,1,27
-7.95,1.61,-5.47,0,0,1,27
-8.31,1.89,-5.58,0,0,1,27
-7.65,2.67,-5.6,0,0,1,27
-7.02,2.82,-5.69,0,0,1,27
-9.37,2.27,-4.56,0,0,1,27
-8.53,3.08,-4.07,0,0,1,27
-9.06,3.54,-5.42,0,0,1,27
-10.22,3.96,-7.42,0,0,1,27
-10.4,3.38,-9.44,0,0,1,27
-11.01,2.09,-10.39,0,0,1,27
-10.14,1.92,-8.14,0,0,1,27
-7.91,1.74,-3.01,0,0,1,27
-5.31,-3.21,-1.42,0,0,1,27
-6.77,-3.03,-3.57,0,0,1,27
-7.2,0.8,-3.29,0,0,1,27
-7.47,1.1,-0.97,0,0,1,27
-7.52,-0.06,-1.9,0,0,1,27
-7.88,-1.97,-2.8,0,0,1,27
-9.87,-1.17,-5.38,0,0,1,27
-12.0,2.91,-6.74,0,0,1,27
-11.86,5.68,-6.77,0,0,1,27
-10.39,5.49,-5.75,0,0,1,27
-9.14,4.08,-4.58,0,0,1,27
-7.35,2.59,-3.06,0,0,1,27
-6.94,1.61,-2.4,0,0,1,27
-7.05,1.72,-2.93,0,0,1,27
-7.16,2.18,-3.59,0,0,1,27
-7.29,2.67,-3.88,0,0,1,27
-7.11,2.91,-3.8,0,0,1,27
-6.94,2.91,-3.91,0,0,1,27
-7.19,2.76,-4.14,0,0,1,27
-8.69,2.64,-4.13,0,0,1,27
-8.1,3.15,-4.47,0,0,1,27
-7.83,3.75,-4.42,0,0,1,27
-7.63,4.27,-4.39,0,0,1,27
-7.62,4.68,-4.32,0,0,1,27
-8.23,4.89,-4.33,0,0,1,27
-8.75,5.43,-4.69,0,0,1,27
-8.29,5.76,-4.8,0,0,1,27
-10.2,3.78,-4.22,0,0,1,27
-11.04,2.75,-6.34,0,0,1,27
-11.45,0.41,-8.05,0,0,1,27
-10.07,-1.94,-5.55,0,0,1,27
-8.49,-1.95,-3.04,0,0,1,27
-7.75,1.45,-1.96,0,0,1,27
-7.85,3.32,-2.9,0,0,1,27
-8.19,1.4,-4.39,0,0,1,27
-9.05,-0.58,-5.33,0,0,1,27
-8.64,-0.9,-5.96,0,0,1,27
-8.01,-0.06,-4.39,0,0,1,27
-7.85,0.91,-3.15,0,0,1,27
-7.47,1.84,-4.05,0,0,1,27
-7.82,2.0,-5.17,0,0,1,27
-8.69,1.6,-5.44,0,0,1,27
-8.8,1.21,-4.81,0,0,1,27
-8.25,1.13,-4.3,0,0,1,27
-7.76,1.38,-4.67,0,0,1,27
-7.96,1.5,-5.26,0,0,1,27
-8.36,1.56,-5.35,0,0,1,27
-7.87,1.6,-5.51,0,0,1,27
-7.97,1.6,-5.43,0,0,1,27
-7.99,1.89,-5.19,0,0,1,27
-7.71,2.16,-5.08,0,0,1,27
-7.81,2.51,-5.16,0,0,1,27
-7.86,3.07,-5.27,0,0,1,27
-7.73,3.22,-5.25,0,0,1,27
-7.7,2.72,-4.77,0,0,1,27
-7.51,1.74,-4.65,0,0,1,27
-7.92,0.66,-4.45,0,0,1,27
-7.6,0.81,-4.53,0,0,1,27
-8.17,1.63,-4.82,0,0,1,27
-8.24,2.28,-5.08,0,0,1,27
-7.31,1.14,-6.32,0,0,1,27
-8.13,0.6,-4.34,0,0,1,27
-7.81,2.13,-4.31,0,0,1,27
-10.2,4.29,-5.06,0,0,1,27
-11.88,5.43,-6.96,0,0,1,27
-12.16,3.36,-9.64,0,0,1,27
-11.79,-0.21,-10.45,0,0,1,27
-10.04,-1.74,-7.62,0,0,1,27
-6.74,-2.52,-0.9,0,0,1,27
-4.14,-2.94,1.0,0,0,1,27
-4.63,-2.36,-0.63,0,0,1,27
-5.91,-0.87,-2.06,0,0,1,27
-7.83,1.53,-3.71,0,0,1,27
-10.57,3.89,-5.77,0,0,1,27
-12.21,5.03,-7.47,0,0,1,27
-11.77,4.44,-7.75,0,0,1,27
-9.35,3.65,-5.39,0,0,1,27
-7.68,3.37,-2.42,0,0,1,27
-7.2,2.76,-1.63,0,0,1,27
-8.23,2.11,-3.59,0,0,1,27
-8.63,1.83,-4.85,0,0,1,27
-8.66,1.9,-4.74,0,0,1,27
-7.97,1.67,-3.77,0,0,1,27
-6.25,1.6,-3.0,0,0,1,27
-8.19,1.4,-4.39,0,0,1,28
-9.05,-0.58,-5.33,0,0,1,28
-8.64,-0.9,-5.96,0,0,1,28
-8.01,-0.06,-4.39,0,0,1,28
-7.85,0.91,-3.15,0,0,1,28
-7.47,1.84,-4.05,0,0,1,28
-7.82,2.0,-5.17,0,0,1,28
-8.69,1.6,-5.44,0,0,1,28
-8.8,1.21,-4.81,0,0,1,28
-8.25,1.13,-4.3,0,0,1,28
-7.76,1.38,-4.67,0,0,1,28
-7.96,1.5,-5.26,0,0,1,28
-8.36,1.56,-5.35,0,0,1,28
-7.87,1.6,-5.51,0,0,1,28
-7.97,1.6,-5.43,0,0,1,28
-7.99,1.89,-5.19,0,0,1,28
-7.71,2.16,-5.08,0,0,1,28
-7.81,2.51,-5.16,0,0,1,28
-7.86,3.07,-5.27,0,0,1,28
-7.73,3.22,-5.25,0,0,1,28
-7.7,2.72,-4.77,0,0,1,28
-7.51,1.74,-4.65,0,0,1,28
-7.92,0.66,-4.45,0,0,1,28
-7.6,0.81,-4.53,0,0,1,28
-8.17,1.63,-4.82,0,0,1,28
-8.24,2.28,-5.08,0,0,1,28
-7.31,1.14,-6.32,0,0,1,28
-8.13,0.6,-4.34,0,0,1,28
-7.81,2.13,-4.31,0,0,1,28
-10.2,4.29,-5.06,0,0,1,28
-11.88,5.43,-6.96,0,0,1,28
-12.16,3.36,-9.64,0,0,1,28
-11.79,-0.21,-10.45,0,0,1,28
-10.04,-1.74,-7.62,0,0,1,28
-6.74,-2.52,-0.9,0,0,1,28
-4.14,-2.94,1.0,0,0,1,28
-4.63,-2.36,-0.63,0,0,1,28
-5.91,-0.87,-2.06,0,0,1,28
-7.83,1.53,-3.71,0,0,1,28
-10.57,3.89,-5.77,0,0,1,28
-12.21,5.03,-7.47,0,0,1,28
-11.77,4.44,-7.75,0,0,1,28
-9.35,3.65,-5.39,0,0,1,28
-7.68,3.37,-2.42,0,0,1,28
-7.2,2.76,-1.63,0,0,1,28
-8.23,2.11,-3.59,0,0,1,28
-8.63,1.83,-4.85,0,0,1,28
-8.66,1.9,-4.74,0,0,1,28
-7.97,1.67,-3.77,0,0,1,28
-6.25,1.6,-3.0,0,0,1,28
-6.72,1.09,-3.25,0,0,1,28
-6.68,1.78,-4.01,0,0,1,28
-7.51,2.38,-4.78,0,0,1,28
-8.01,2.81,-5.13,0,0,1,28
-8.28,2.94,-4.76,0,0,1,28
-8.38,2.71,-4.27,0,0,1,28
-8.05,2.8,-4.31,0,0,1,28
-8.05,2.99,-4.75,0,0,1,28
-8.47,3.52,-4.89,0,0,1,28
-8.29,4.11,-5.0,0,0,1,28
-7.61,4.19,-4.6,0,0,1,28
-10.67,2.01,-4.28,0,0,1,28
-10.56,1.73,-8.16,0,0,1,28
-12.36,-0.41,-8.56,0,0,1,28
-10.79,-0.76,-7.43,0,0,1,28
-7.87,0.37,-3.54,0,0,1,28
-6.75,2.13,-1.44,0,0,1,28
-6.48,3.82,-2.59,0,0,1,28
-7.05,2.46,-3.48,0,0,1,28
-9.22,-0.39,-5.34,0,0,1,28
-9.16,-2.09,-6.41,0,0,1,28
-8.12,-2.43,-5.94,0,0,1,28
-7.31,-2.17,-4.86,0,0,1,28
-7.53,-1.01,-3.99,0,0,1,28
-8.34,0.72,-4.51,0,0,1,28
-8.71,1.41,-5.37,0,0,1,28
-8.47,1.31,-6.0,0,0,1,28
-8.58,0.75,-6.3,0,0,1,28
-8.86,-0.02,-6.5,0,0,1,28
-8.28,-0.54,-6.29,0,0,1,28
-7.93,-0.51,-5.65,0,0,1,28
-7.87,0.08,-4.98,0,0,1,28
-7.77,0.8,-4.95,0,0,1,28
-7.77,1.15,-5.25,0,0,1,28
-7.58,1.33,-5.76,0,0,1,28
-7.76,1.67,-6.22,0,0,1,28
-7.85,1.95,-5.86,0,0,1,28
-7.37,1.92,-5.53,0,0,1,28
-9.13,1.12,-4.35,0,0,1,28
-8.63,1.47,-0.97,0,0,1,28
-7.68,1.89,-0.73,0,0,1,28
-9.06,0.43,-4.56,0,0,1,28
-10.22,-2.25,-7.7,0,0,1,28
-9.93,-3.41,-7.37,0,0,1,28
-9.87,-2.07,-6.26,0,0,1,28
-10.27,0.41,-5.4,0,0,1,28
-9.94,2.23,-3.9,0,0,1,28
-8.98,1.7,-3.07,0,0,1,28
-8.47,0.11,-3.35,0,0,1,28
-7.57,-0.59,-3.64,0,0,1,28
-6.72,1.09,-3.25,0,0,1,29
-6.68,1.78,-4.01,0,0,1,29
-7.51,2.38,-4.78,0,0,1,29
-8.01,2.81,-5.13,0,0,1,29
-8.28,2.94,-4.76,0,0,1,29
-8.38,2.71,-4.27,0,0,1,29
-8.05,2.8,-4.31,0,0,1,29
-8.05,2.99,-4.75,0,0,1,29
-8.47,3.52,-4.89,0,0,1,29
-8.29,4.11,-5.0,0,0,1,29
-7.61,4.19,-4.6,0,0,1,29
-10.67,2.01,-4.28,0,0,1,29
-10.56,1.73,-8.16,0,0,1,29
-12.36,-0.41,-8.56,0,0,1,29
-10.79,-0.76,-7.43,0,0,1,29
-7.87,0.37,-3.54,0,0,1,29
-6.75,2.13,-1.44,0,0,1,29
-6.48,3.82,-2.59,0,0,1,29
-7.05,2.46,-3.48,0,0,1,29
-9.22,-0.39,-5.34,0,0,1,29
-9.16,-2.09,-6.41,0,0,1,29
-8.12,-2.43,-5.94,0,0,1,29
-7.31,-2.17,-4.86,0,0,1,29
-7.53,-1.01,-3.99,0,0,1,29
-8.34,0.72,-4.51,0,0,1,29
-8.71,1.41,-5.37,0,0,1,29
-8.47,1.31,-6.0,0,0,1,29
-8.58,0.75,-6.3,0,0,1,29
-8.86,-0.02,-6.5,0,0,1,29
-8.28,-0.54,-6.29,0,0,1,29
-7.93,-0.51,-5.65,0,0,1,29
-7.87,0.08,-4.98,0,0,1,29
-7.77,0.8,-4.95,0,0,1,29
-7.77,1.15,-5.25,0,0,1,29
-7.58,1.33,-5.76,0,0,1,29
-7.76,1.67,-6.22,0,0,1,29
-7.85,1.95,-5.86,0,0,1,29
-7.37,1.92,-5.53,0,0,1,29
-9.13,1.12,-4.35,0,0,1,29
-8.63,1.47,-0.97,0,0,1,29
-7.68,1.89,-0.73,0,0,1,29
-9.06,0.43,-4.56,0,0,1,29
-10.22,-2.25,-7.7,0,0,1,29
-9.93,-3.41,-7.37,0,0,1,29
-9.87,-2.07,-6.26,0,0,1,29
-10.27,0.41,-5.4,0,0,1,29
-9.94,2.23,-3.9,0,0,1,29
-8.98,1.7,-3.07,0,0,1,29
-8.47,0.11,-3.35,0,0,1,29
-7.57,-0.59,-3.64,0,0,1,29
-6.77,-0.11,-3.57,0,0,1,29
-6.56,1.3,-3.38,0,0,1,29
-7.3,1.75,-3.2,0,0,1,29
-8.72,1.75,-4.03,0,0,1,29
-9.48,1.7,-5.2,0,0,1,29
-9.79,1.27,-5.53,0,0,1,29
-9.77,1.43,-5.05,0,0,1,29
-8.91,1.62,-4.6,0,0,1,29
-10.21,3.5,-5.31,0,0,1,29
-9.36,2.41,-5.75,0,0,1,29
-8.94,1.83,-5.31,0,0,1,29
-9.09,1.95,-5.08,0,0,1,29
-8.75,1.85,-4.7,0,0,1,29
-8.8,1.7,-4.61,0,0,1,29
-8.62,1.84,-4.62,0,0,1,29
-8.16,2.09,-4.19,0,0,1,29
-7.62,2.3,-3.57,0,0,1,29
-7.6,2.38,-3.3,0,0,1,29
-7.93,2.76,-3.51,0,0,1,29
-7.93,3.42,-3.83,0,0,1,29
-7.91,3.61,-3.8,0,0,1,29
-7.78,3.38,-3.16,0,0,1,29
-7.47,2.69,-2.66,0,0,1,29
-7.38,1.84,-2.96,0,0,1,29
-7.71,1.2,-3.83,0,0,1,29
-8.49,0.94,-4.3,0,0,1,29
-8.78,1.83,-5.01,0,0,1,29
-11.02,3.21,-5.91,0,0,1,29
-12.06,4.36,-7.76,0,0,1,29
-9.42,2.88,-6.26,0,0,1,29
-7.09,1.14,-2.47,0,0,1,29
-6.17,0.85,-1.46,0,0,1,29
-8.5,1.33,-3.43,0,0,1,29
-9.46,1.31,-4.61,0,0,1,29
-9.6,0.22,-4.32,0,0,1,29
-7.88,-0.23,-4.1,0,0,1,29
-7.21,1.31,-3.88,0,0,1,29
-7.76,3.42,-5.61,0,0,1,29
-8.31,3.81,-5.76,0,0,1,29
-8.2,3.34,-6.04,0,0,1,29
-7.75,2.37,-6.61,0,0,1,29
-8.06,1.33,-6.2,0,0,1,29
-7.95,0.54,-5.72,0,0,1,29
-7.72,0.82,-5.87,0,0,1,29
-7.85,1.26,-6.17,0,0,1,29
-8.11,1.97,-6.34,0,0,1,29
-8.09,2.65,-6.17,0,0,1,29
-7.5,2.98,-5.65,0,0,1,29
-7.29,3.29,-5.11,0,0,1,29
-7.35,4.04,-5.15,0,0,1,29
-6.77,-0.11,-3.57,0,0,1,30
-6.56,1.3,-3.38,0,0,1,30
-7.3,1.75,-3.2,0,0,1,30
-8.72,1.75,-4.03,0,0,1,30
-9.48,1.7,-5.2,0,0,1,30
-9.79,1.27,-5.53,0,0,1,30
-9.77,1.43,-5.05,0,0,1,30
-8.91,1.62,-4.6,0,0,1,30
-10.21,3.5,-5.31,0,0,1,30
-9.36,2.41,-5.75,0,0,1,30
-8.94,1.83,-5.31,0,0,1,30
-9.09,1.95,-5.08,0,0,1,30
-8.75,1.85,-4.7,0,0,1,30
-8.8,1.7,-4.61,0,0,1,30
-8.62,1.84,-4.62,0,0,1,30
-8.16,2.09,-4.19,0,0,1,30
-7.62,2.3,-3.57,0,0,1,30
-7.6,2.38,-3.3,0,0,1,30
-7.93,2.76,-3.51,0,0,1,30
-7.93,3.42,-3.83,0,0,1,30
-7.91,3.61,-3.8,0,0,1,30
-7.78,3.38,-3.16,0,0,1,30
-7.47,2.69,-2.66,0,0,1,30
-7.38,1.84,-2.96,0,0,1,30
-7.71,1.2,-3.83,0,0,1,30
-8.49,0.94,-4.3,0,0,1,30
-8.78,1.83,-5.01,0,0,1,30
-11.02,3.21,-5.91,0,0,1,30
-12.06,4.36,-7.76,0,0,1,30
-9.42,2.88,-6.26,0,0,1,30
-7.09,1.14,-2.47,0,0,1,30
-6.17,0.85,-1.46,0,0,1,30
-8.5,1.33,-3.43,0,0,1,30
-9.46,1.31,-4.61,0,0,1,30
-9.6,0.22,-4.32,0,0,1,30
-7.88,-0.23,-4.1,0,0,1,30
-7.21,1.31,-3.88,0,0,1,30
-7.76,3.42,-5.61,0,0,1,30
-8.31,3.81,-5.76,0,0,1,30
-8.2,3.34,-6.04,0,0,1,30
-7.75,2.37,-6.61,0,0,1,30
-8.06,1.33,-6.2,0,0,1,30
-7.95,0.54,-5.72,0,0,1,30
-7.72,0.82,-5.87,0,0,1,30
-7.85,1.26,-6.17,0,0,1,30
-8.11,1.97,-6.34,0,0,1,30
-8.09,2.65,-6.17,0,0,1,30
-7.5,2.98,-5.65,0,0,1,30
-7.29,3.29,-5.11,0,0,1,30
-7.35,4.04,-5.15,0,0,1,30
-7.65,4.56,-5.42,0,0,1,30
-7.98,4.72,-5.52,0,0,1,30
-8.27,4.47,-5.8,0,0,1,30
-8.06,4.11,-5.58,0,0,1,30
-8.04,3.34,-5.45,0,0,1,30
-8.02,2.64,-5.27,0,0,1,30
-7.63,2.29,-5.38,0,0,1,30
-7.31,2.54,-5.48,0,0,1,30
-7.42,3.01,-5.37,0,0,1,30
-7.51,3.61,-5.4,0,0,1,30
-7.52,4.05,-5.32,0,0,1,30
-7.85,4.15,-5.28,0,0,1,30
-7.72,4.15,-4.79,0,0,1,30
-7.66,3.84,-4.47,0,0,1,30
-7.77,3.91,-4.01,0,0,1,30
-7.69,3.71,-4.29,0,0,1,30
-7.48,3.86,-4.31,0,0,1,30
-7.41,4.27,-4.35,0,0,1,30
-7.36,4.65,-4.39,0,0,1,30
-7.36,4.16,-5.12,0,0,1,30
-9.7,2.82,-4.48,0,0,1,30
-8.77,2.76,-1.44,0,0,1,30
-8.38,3.85,-1.63,0,0,1,30
-9.47,2.68,-4.23,0,0,1,30
-10.36,0.3,-6.94,0,0,1,30
-10.25,-1.7,-8.1,0,0,1,30
-10.03,-1.18,-7.51,0,0,1,30
-9.4,-0.07,-5.51,0,0,1,30
-8.19,0.09,-3.33,0,0,1,30
-7.07,0.22,-3.15,0,0,1,30
-7.01,1.34,-3.3,0,0,1,30
-7.67,2.21,-3.36,0,0,1,30
-9.11,2.7,-4.03,0,0,1,30
-10.1,2.97,-4.96,0,0,1,30
-10.15,2.84,-5.35,0,0,1,30
-8.83,2.65,-4.5,0,0,1,30
-7.54,3.02,-3.26,0,0,1,30
-6.98,3.28,-2.69,0,0,1,30
-7.32,3.24,-2.84,0,0,1,30
-7.89,3.33,-3.39,0,0,1,30
-8.32,3.52,-3.44,0,0,1,30
-8.15,3.32,-3.38,0,0,1,30
-7.78,3.04,-3.22,0,0,1,30
-7.65,3.23,-3.3,0,0,1,30
-7.71,3.51,-3.67,0,0,1,30
-7.32,3.56,-3.96,0,0,1,30
-7.53,3.51,-3.88,0,0,1,30
-7.94,3.77,-3.96,0,0,1,30
-7.7,3.65,-4.31,0,0,1,30
-7.63,3.73,-3.65,0,0,1,30
-7.65,4.56,-5.42,0,0,1,31
-7.98,4.72,-5.52,0,0,1,31
-8.27,4.47,-5.8,0,0,1,31
-8.06,4.11,-5.58,0,0,1,31
-8.04,3.34,-5.45,0,0,1,31
-8.02,2.64,-5.27,0,0,1,31
-7.63,2.29,-5.38,0,0,1,31
-7.31,2.54,-5.48,0,0,1,31
-7.42,3.01,-5.37,0,0,1,31
-7.51,3.61,-5.4,0,0,1,31
-7.52,4.05,-5.32,0,0,1,31
-7.85,4.15,-5.28,0,0,1,31
-7.72,4.15,-4.79,0,0,1,31
-7.66,3.84,-4.47,0,0,1,31
-7.77,3.91,-4.01,0,0,1,31
-7.69,3.71,-4.29,0,0,1,31
-7.48,3.86,-4.31,0,0,1,31
-7.41,4.27,-4.35,0,0,1,31
-7.36,4.65,-4.39,0,0,1,31
-7.36,4.16,-5.12,0,0,1,31
-9.7,2.82,-4.48,0,0,1,31
-8.77,2.76,-1.44,0,0,1,31
-8.38,3.85,-1.63,0,0,1,31
-9.47,2.68,-4.23,0,0,1,31
-10.36,0.3,-6.94,0,0,1,31
-10.25,-1.7,-8.1,0,0,1,31
-10.03,-1.18,-7.51,0,0,1,31
-9.4,-0.07,-5.51,0,0,1,31
-8.19,0.09,-3.33,0,0,1,31
-7.07,0.22,-3.15,0,0,1,31
-7.01,1.34,-3.3,0,0,1,31
-7.67,2.21,-3.36,0,0,1,31
-9.11,2.7,-4.03,0,0,1,31
-10.1,2.97,-4.96,0,0,1,31
-10.15,2.84,-5.35,0,0,1,31
-8.83,2.65,-4.5,0,0,1,31
-7.54,3.02,-3.26,0,0,1,31
-6.98,3.28,-2.69,0,0,1,31
-7.32,3.24,-2.84,0,0,1,31
-7.89,3.33,-3.39,0,0,1,31
-8.32,3.52,-3.44,0,0,1,31
-8.15,3.32,-3.38,0,0,1,31
-7.78,3.04,-3.22,0,0,1,31
-7.65,3.23,-3.3,0,0,1,31
-7.71,3.51,-3.67,0,0,1,31
-7.32,3.56,-3.96,0,0,1,31
-7.53,3.51,-3.88,0,0,1,31
-7.94,3.77,-3.96,0,0,1,31
-7.7,3.65,-4.31,0,0,1,31
-7.63,3.73,-3.65,0,0,1,31
-7.85,4.06,-2.8,0,0,1,31
-12.43,2.6,-3.33,0,0,1,31
-13.62,1.86,-7.44,0,0,1,31
-11.4,1.61,-8.44,0,0,1,31
-8.83,0.65,-5.36,0,0,1,31
-7.94,0.3,-2.46,0,0,1,31
-8.49,2.15,-1.97,0,0,1,31
-9.28,3.37,-2.4,0,0,1,31
-9.85,2.0,-4.12,0,0,1,31
-8.76,0.15,-5.58,0,0,1,31
-8.16,-1.28,-6.03,0,0,1,31
-7.65,-1.1,-5.57,0,0,1,31
-7.25,-1.04,-4.93,0,0,1,31
-7.52,-1.23,-4.98,0,0,1,31
-7.63,-0.27,-4.62,0,0,1,31
-7.62,1.83,-4.51,0,0,1,31
-8.07,3.35,-5.45,0,0,1,31
-9.1,2.95,-6.57,0,0,1,31
-9.07,2.26,-6.58,0,0,1,31
-8.51,1.44,-5.38,0,0,1,31
-8.0,1.04,-4.46,0,0,1,31
-7.96,0.91,-4.28,0,0,1,31
-8.28,1.03,-4.72,0,0,1,31
-8.49,1.35,-5.24,0,0,1,31
-8.7,1.43,-5.43,0,0,1,31
-8.59,1.29,-5.34,0,0,1,31
-8.23,1.28,-4.72,0,0,1,31
-8.1,1.18,-4.45,0,0,1,31
-8.45,1.42,-4.83,0,0,1,31
-8.77,1.56,-5.17,0,0,1,31
-8.53,1.43,-5.01,0,0,1,31
-8.47,1.39,-4.63,0,0,1,31
-8.54,1.3,-4.36,0,0,1,31
-8.65,0.85,-4.55,0,0,1,31
-8.5,-0.06,-4.72,0,0,1,31
-8.35,-0.73,-4.72,0,0,1,31
-8.43,-0.85,-5.11,0,0,1,31
-8.75,-0.97,-5.07,0,0,1,31
-8.76,-0.92,-4.51,0,0,1,31
-8.39,-0.96,-4.35,0,0,1,31
-8.84,-1.27,-4.78,0,0,1,31
-9.41,-2.67,-5.65,0,0,1,31
-10.34,-3.53,-4.93,0,0,1,31
-8.65,-2.3,-2.8,0,0,1,31
-8.35,-0.56,-2.46,0,0,1,31
-8.55,-0.03,-3.73,0,0,1,31
-9.55,-1.7,-4.73,0,0,1,31
-9.02,-3.33,-4.19,0,0,1,31
-7.8,-2.84,-2.65,0,0,1,31
-8.81,-0.92,-1.87,0,0,1,31
-7.85,4.06,-2.8,0,0,1,32
-12.43,2.6,-3.33,0,0,1,32
-13.62,1.86,-7.44,0,0,1,32
-11.4,1.61,-8.44,0,0,1,32
-8.83,0.65,-5.36,0,0,1,32
-7.94,0.3,-2.46,0,0,1,32
-8.49,2.15,-1.97,0,0,1,32
-9.28,3.37,-2.4,0,0,1,32
-9.85,2.0,-4.12,0,0,1,32
-8.76,0.15,-5.58,0,0,1,32
-8.16,-1.28,-6.03,0,0,1,32
-7.65,-1.1,-5.57,0,0,1,32
-7.25,-1.04,-4.93,0,0,1,32
-7.52,-1.23,-4.98,0,0,1,32
-7.63,-0.27,-4.62,0,0,1,32
-7.62,1.83,-4.51,0,0,1,32
-8.07,3.35,-5.45,0,0,1,32
-9.1,2.95,-6.57,0,0,1,32
-9.07,2.26,-6.58,0,0,1,32
-8.51,1.44,-5.38,0,0,1,32
-8.0,1.04,-4.46,0,0,1,32
-7.96,0.91,-4.28,0,0,1,32
-8.28,1.03,-4.72,0,0,1,32
-8.49,1.35,-5.24,0,0,1,32
-8.7,1.43,-5.43,0,0,1,32
-8.59,1.29,-5.34,0,0,1,32
-8.23,1.28,-4.72,0,0,1,32
-8.1,1.18,-4.45,0,0,1,32
-8.45,1.42,-4.83,0,0,1,32
-8.77,1.56,-5.17,0,0,1,32
-8.53,1.43,-5.01,0,0,1,32
-8.47,1.39,-4.63,0,0,1,32
-8.54,1.3,-4.36,0,0,1,32
-8.65,0.85,-4.55,0,0,1,32
-8.5,-0.06,-4.72,0,0,1,32
-8.35,-0.73,-4.72,0,0,1,32
-8.43,-0.85,-5.11,0,0,1,32
-8.75,-0.97,-5.07,0,0,1,32
-8.76,-0.92,-4.51,0,0,1,32
-8.39,-0.96,-4.35,0,0,1,32
-8.84,-1.27,-4.78,0,0,1,32
-9.41,-2.67,-5.65,0,0,1,32
-10.34,-3.53,-4.93,0,0,1,32
-8.65,-2.3,-2.8,0,0,1,32
-8.35,-0.56,-2.46,0,0,1,32
-8.55,-0.03,-3.73,0,0,1,32
-9.55,-1.7,-4.73,0,0,1,32
-9.02,-3.33,-4.19,0,0,1,32
-7.8,-2.84,-2.65,0,0,1,32
-8.81,-0.92,-1.87,0,0,1,32
-9.56,1.05,-2.19,0,0,1,32
-9.6,0.81,-2.45,0,0,1,32
-9.17,-1.03,-1.96,0,0,1,32
-8.14,-2.71,-2.01,0,0,1,32
-9.27,-3.48,-2.56,0,0,1,32
-10.38,-3.28,-4.08,0,0,1,32
-10.11,-3.08,-3.73,0,0,1,32
-8.86,-3.04,-2.34,0,0,1,32
-8.33,-2.68,-1.65,0,0,1,32
-8.98,-2.78,-1.76,0,0,1,32
-9.47,-3.23,-2.38,0,0,1,32
-8.87,-4.39,-2.64,0,0,1,32
-8.32,-5.1,-2.49,0,0,1,32
-7.83,-5.09,-2.54,0,0,1,32
-7.24,-4.47,-0.81,0,0,1,32
-9.04,-3.54,-1.69,0,0,1,32
-9.29,-3.21,-1.17,0,0,1,32
-9.17,-3.68,-1.16,0,0,1,32
-8.68,-4.68,-1.09,0,0,1,32
-7.84,-4.55,-0.74,0,0,1,32
-8.03,-4.6,-0.59,0,0,1,32
-7.77,-4.58,-0.34,0,0,1,32
-7.63,-4.99,-0.52,0,0,1,32
-7.16,-5.22,-0.21,0,0,1,32
-7.36,-5.43,-0.1,0,0,1,32
-7.14,-5.65,-0.1,0,0,1,32
-6.77,-5.61,0.44,0,0,1,32
-6.97,-5.68,0.64,0,0,1,32
-6.93,-6.05,0.4,0,0,1,32
-6.68,-6.26,0.18,0,0,1,32
-6.68,-6.46,0.59,0,0,1,32
-6.76,-6.39,0.39,0,0,1,32
-6.24,-6.24,0.71,0,0,1,32
-5.91,-5.96,1.51,0,0,1,32
-5.93,-5.87,1.62,0,0,1,32
-6.11,-5.69,1.36,0,0,1,32
-6.71,-5.66,1.29,0,0,1,32
-6.79,-5.86,1.45,0,0,1,32
-6.83,-6.64,1.55,0,0,1,32
-6.35,-6.97,1.67,0,0,1,32
-6.21,-7.21,2.06,0,0,1,32
-6.2,-7.46,2.41,0,0,1,32
-6.47,-7.22,2.24,0,0,1,32
-6.84,-6.9,1.9,0,0,1,32
-6.87,-6.81,2.43,0,0,1,32
-6.14,-6.97,2.74,0,0,1,32
-6.16,-7.45,2.55,0,0,1,32
-6.59,-7.57,2.21,0,0,1,32
-6.92,-7.32,2.16,0,0,1,32
-6.85,-7.33,2.27,0,0,1,32
-9.56,1.05,-2.19,0,0,1,33
-9.6,0.81,-2.45,0,0,1,33
-9.17,-1.03,-1.96,0,0,1,33
-8.14,-2.71,-2.01,0,0,1,33
-9.27,-3.48,-2.56,0,0,1,33
-10.38,-3.28,-4.08,0,0,1,33
-10.11,-3.08,-3.73,0,0,1,33
-8.86,-3.04,-2.34,0,0,1,33
-8.33,-2.68,-1.65,0,0,1,33
-8.98,-2.78,-1.76,0,0,1,33
-9.47,-3.23,-2.38,0,0,1,33
-8.87,-4.39,-2.64,0,0,1,33
-8.32,-5.1,-2.49,0,0,1,33
-7.83,-5.09,-2.54,0,0,1,33
-7.24,-4.47,-0.81,0,0,1,33
-9.04,-3.54,-1.69,0,0,1,33
-9.29,-3.21,-1.17,0,0,1,33
-9.17,-3.68,-1.16,0,0,1,33
-8.68,-4.68,-1.09,0,0,1,33
-7.84,-4.55,-0.74,0,0,1,33
-8.03,-4.6,-0.59,0,0,1,33
-7.77,-4.58,-0.34,0,0,1,33
-7.63,-4.99,-0.52,0,0,1,33
-7.16,-5.22,-0.21,0,0,1,33
-7.36,-5.43,-0.1,0,0,1,33
-7.14,-5.65,-0.1,0,0,1,33
-6.77,-5.61,0.44,0,0,1,33
-6.97,-5.68,0.64,0,0,1,33
-6.93,-6.05,0.4,0,0,1,33
-6.68,-6.26,0.18,0,0,1,33
-6.68,-6.46,0.59,0,0,1,33
-6.76,-6.39,0.39,0,0,1,33
-6.24,-6.24,0.71,0,0,1,33
-5.91,-5.96,1.51,0,0,1,33
-5.93,-5.87,1.62,0,0,1,33
-6.11,-5.69,1.36,0,0,1,33
-6.71,-5.66,1.29,0,0,1,33
-6.79,-5.86,1.45,0,0,1,33
-6.83,-6.64,1.55,0,0,1,33
-6.35,-6.97,1.67,0,0,1,33
-6.21,-7.21,2.06,0,0,1,33
-6.2,-7.46,2.41,0,0,1,33
-6.47,-7.22,2.24,0,0,1,33
-6.84,-6.9,1.9,0,0,1,33
-6.87,-6.81,2.43,0,0,1,33
-6.14,-6.97,2.74,0,0,1,33
-6.16,-7.45,2.55,0,0,1,33
-6.59,-7.57,2.21,0,0,1,33
-6.92,-7.32,2.16,0,0,1,33
-6.85,-7.33,2.27,0,0,1,33
-6.3,-7.72,2.82,0,0,1,33
-6.4,-7.81,2.58,0,0,1,33
-6.67,-7.28,2.09,0,0,1,33
-6.79,-7.25,2.02,0,0,1,33
-6.52,-7.63,1.86,0,0,1,33
-6.26,-7.69,2.08,0,0,1,33
-6.39,-7.46,2.26,0,0,1,33
-6.76,-7.3,1.79,0,0,1,33
-6.72,-7.33,1.68,0,0,1,33
-6.41,-7.29,2.15,0,0,1,33
-6.46,-6.94,1.9,0,0,1,33
-6.66,-6.6,1.44,0,0,1,33
-6.75,-6.5,1.62,0,0,1,33
-6.56,-6.55,1.87,0,0,1,33
-6.85,-6.91,1.7,0,0,1,33
-6.84,-6.66,1.28,0,0,1,33
-6.86,-6.57,1.33,0,0,1,33
-6.77,-6.43,1.21,0,0,1,33
-6.98,-6.31,1.14,0,0,1,33
-6.99,-6.41,0.89,0,0,1,33
-7.21,-5.99,0.52,0,0,1,33
-6.97,-5.89,0.96,0,0,1,33
-6.73,-5.75,1.08,0,0,1,33
-7.0,-5.59,1.02,0,0,1,33
-6.96,-5.48,0.55,0,0,1,33
-7.55,-4.82,0.38,0,0,1,33
-8.0,-4.39,0.48,0,0,1,33
-8.2,-4.63,0.3,0,0,1,33
-7.9,-4.62,-0.45,0,0,1,33
-8.43,-4.46,-0.13,0,0,1,33
-8.4,-4.27,-0.2,0,0,1,33
-8.34,-3.95,-0.32,0,0,1,33
-8.72,-3.6,-0.17,0,0,1,33
-8.6,-3.26,-0.66,0,0,1,33
-8.54,-3.53,-0.41,0,0,1,33
-8.53,-3.46,-0.87,0,0,1,33
-8.67,-3.3,-0.9,0,0,1,33
-8.55,-2.54,-0.27,0,0,1,33
-8.7,-1.71,-0.3,0,0,1,33
-9.27,-0.97,-1.71,0,0,1,33
-9.76,-0.73,-2.01,0,0,1,33
-9.32,-0.69,-1.68,0,0,1,33
-8.71,-0.43,-1.18,0,0,1,33
-8.35,-0.23,-1.18,0,0,1,33
-8.69,0.19,-1.97,0,0,1,33
-9.38,0.81,-2.29,0,0,1,33
-9.27,1.09,-2.16,0,0,1,33
-9.23,1.66,-2.44,0,0,1,33
-9.2,1.55,-2.69,0,0,1,33
-9.41,1.32,-3.06,0,0,1,33
-6.3,-7.72,2.82,0,0,1,34
-6.4,-7.81,2.58,0,0,1,34
-6.67,-7.28,2.09,0,0,1,34
-6.79,-7.25,2.02,0,0,1,34
-6.52,-7.63,1.86,0,0,1,34
-6.26,-7.69,2.08,0,0,1,34
-6.39,-7.46,2.26,0,0,1,34
-6.76,-7.3,1.79,0,0,1,34
-6.72,-7.33,1.68,0,0,1,34
-6.41,-7.29,2.15,0,0,1,34
-6.46,-6.94,1.9,0,0,1,34
-6.66,-6.6,1.44,0,0,1,34
-6.75,-6.5,1.62,0,0,1,34
-6.56,-6.55,1.87,0,0,1,34
-6.85,-6.91,1.7,0,0,1,34
-6.84,-6.66,1.28,0,0,1,34
-6.86,-6.57,1.33,0,0,1,34
-6.77,-6.43,1.21,0,0,1,34
-6.98,-6.31,1.14,0,0,1,34
-6.99,-6.41,0.89,0,0,1,34
-7.21,-5.99,0.52,0,0,1,34
-6.97,-5.89,0.96,0,0,1,34
-6.73,-5.75,1.08,0,0,1,34
-7.0,-5.59,1.02,0,0,1,34
-6.96,-5.48,0.55,0,0,1,34
-7.55,-4.82,0.38,0,0,1,34
-8.0,-4.39,0.48,0,0,1,34
-8.2,-4.63,0.3,0,0,1,34
-7.9,-4.62,-0.45,0,0,1,34
-8.43,-4.46,-0.13,0,0,1,34
-8.4,-4.27,-0.2,0,0,1,34
-8.34,-3.95,-0.32,0,0,1,34
-8.72,-3.6,-0.17,0,0,1,34
-8.6,-3.26,-0.66,0,0,1,34
-8.54,-3.53,-0.41,0,0,1,34
-8.53,-3.46,-0.87,0,0,1,34
-8.67,-3.3,-0.9,0,0,1,34
-8.55,-2.54,-0.27,0,0,1,34
-8.7,-1.71,-0.3,0,0,1,34
-9.27,-0.97,-1.71,0,0,1,34
-9.76,-0.73,-2.01,0,0,1,34
-9.32,-0.69,-1.68,0,0,1,34
-8.71,-0.43,-1.18,0,0,1,34
-8.35,-0.23,-1.18,0,0,1,34
-8.69,0.19,-1.97,0,0,1,34
-9.38,0.81,-2.29,0,0,1,34
-9.27,1.09,-2.16,0,0,1,34
-9.23,1.66,-2.44,0,0,1,34
-9.2,1.55,-2.69,0,0,1,34
-9.41,1.32,-3.06,0,0,1,34
-9.47,1.9,-3.16,0,0,1,34
-9.51,2.38,-3.37,0,0,1,34
-9.22,2.28,-3.29,0,0,1,34
-9.23,2.07,-3.81,0,0,1,34
-9.38,1.49,-4.55,0,0,1,34
-8.44,1.28,-4.21,0,0,1,34
-7.49,1.62,-3.66,0,0,1,34
-13.16,-2.05,-7.27,0,0,1,34
-17.38,-2.27,-10.3,0,0,1,34
-12.84,-3.65,-8.82,0,0,1,34
-9.41,-3.6,-3.65,0,0,1,34
-8.33,-1.18,-3.07,0,0,1,34
-7.44,2.05,-2.66,0,0,1,34
-6.34,2.45,-1.0,0,0,1,34
-6.19,1.38,-1.22,0,0,1,34
-7.96,-0.42,-3.89,0,0,1,34
-9.44,-1.79,-6.93,0,0,1,34
-9.93,-1.83,-7.73,0,0,1,34
-9.27,-0.98,-5.87,0,0,1,34
-8.1,-0.17,-3.69,0,0,1,34
-7.49,0.57,-3.26,0,0,1,34
-7.41,0.08,-4.21,0,0,1,34
-8.06,-0.4,-5.63,0,0,1,34
-8.56,-0.9,-6.46,0,0,1,34
-8.28,-0.25,-6.02,0,0,1,34
-7.94,1.31,-4.97,0,0,1,34
-8.02,2.45,-4.05,0,0,1,34
-8.26,2.38,-4.28,0,0,1,34
-8.51,1.54,-5.31,0,0,1,34
-8.83,1.39,-5.71,0,0,1,34
-8.63,1.68,-5.39,0,0,1,34
-8.27,2.18,-4.95,0,0,1,34
-8.15,2.3,-5.04,0,0,1,34
-8.2,1.8,-5.14,0,0,1,34
-7.93,1.74,-5.29,0,0,1,34
-7.2,1.69,-5.19,0,0,1,34
-7.0,1.73,-4.73,0,0,1,34
-6.82,2.9,-4.59,0,0,1,34
-6.8,3.7,-5.08,0,0,1,34
-7.97,3.99,-5.71,0,0,1,34
-8.92,3.81,-5.37,0,0,1,34
-10.25,1.96,-2.71,0,0,1,34
-8.57,1.48,-1.02,0,0,1,34
-7.32,1.03,-2.98,0,0,1,34
-7.96,-0.51,-6.49,0,0,1,34
-9.02,-1.63,-7.45,0,0,1,34
-9.7,-0.78,-6.51,0,0,1,34
-10.41,2.0,-5.88,0,0,1,34
-11.48,3.64,-5.6,0,0,1,34
-11.41,2.32,-5.75,0,0,1,34
-9.47,1.9,-3.16,0,0,1,35
-9.51,2.38,-3.37,0,0,1,35
-9.22,2.28,-3.29,0,0,1,35
-9.23,2.07,-3.81,0,0,1,35
-9.38,1.49,-4.55,0,0,1,35
-8.44,1.28,-4.21,0,0,1,35
-7.49,1.62,-3.66,0,0,1,35
-13.16,-2.05,-7.27,0,0,1,35
-17.38,-2.27,-10.3,0,0,1,35
-12.84,-3.65,-8.82,0,0,1,35
-9.41,-3.6,-3.65,0,0,1,35
-8.33,-1.18,-3.07,0,0,1,35
-7.44,2.05,-2.66,0,0,1,35
-6.34,2.45,-1.0,0,0,1,35
-6.19,1.38,-1.22,0,0,1,35
-7.96,-0.42,-3.89,0,0,1,35
-9.44,-1.79,-6.93,0,0,1,35
-9.93,-1.83,-7.73,0,0,1,35
-9.27,-0.98,-5.87,0,0,1,35
-8.1,-0.17,-3.69,0,0,1,35
-7.49,0.57,-3.26,0,0,1,35
-7.41,0.08,-4.21,0,0,1,35
-8.06,-0.4,-5.63,0,0,1,35
-8.56,-0.9,-6.46,0,0,1,35
-8.28,-0.25,-6.02,0,0,1,35
-7.94,1.31,-4.97,0,0,1,35
-8.02,2.45,-4.05,0,0,1,35
-8.26,2.38,-4.28,0,0,1,35
-8.51,1.54,-5.31,0,0,1,35
-8.83,1.39,-5.71,0,0,1,35
-8.63,1.68,-5.39,0,0,1,35
-8.27,2.18,-4.95,0,0,1,35
-8.15,2.3,-5.04,0,0,1,35
-8.2,1.8,-5.14,0,0,1,35
-7.93,1.74,-5.29,0,0,1,35
-7.2,1.69,-5.19,0,0,1,35
-7.0,1.73,-4.73,0,0,1,35
-6.82,2.9,-4.59,0,0,1,35
-6.8,3.7,-5.08,0,0,1,35
-7.97,3.99,-5.71,0,0,1,35
-8.92,3.81,-5.37,0,0,1,35
-10.25,1.96,-2.71,0,0,1,35
-8.57,1.48,-1.02,0,0,1,35
-7.32,1.03,-2.98,0,0,1,35
-7.96,-0.51,-6.49,0,0,1,35
-9.02,-1.63,-7.45,0,0,1,35
-9.7,-0.78,-6.51,0,0,1,35
-10.41,2.0,-5.88,0,0,1,35
-11.48,3.64,-5.6,0,0,1,35
-11.41,2.32,-5.75,0,0,1,35
-9.96,0.01,-5.44,0,0,1,35
-9.0,0.03,-4.77,0,0,1,35
-7.61,1.02,-3.64,0,0,1,35
-6.75,1.47,-3.0,0,0,1,35
-6.57,1.61,-2.55,0,0,1,35
-7.29,1.06,-2.2,0,0,1,35
-8.25,0.74,-2.44,0,0,1,35
-8.94,1.2,-3.15,0,0,1,35
-9.32,2.77,-4.24,0,0,1,35
-10.05,3.9,-4.88,0,0,1,35
-10.41,4.85,-5.07,0,0,1,35
-9.81,4.57,-4.96,0,0,1,35
-8.6,3.33,-3.88,0,0,1,35
-7.57,2.32,-2.93,0,0,1,35
-7.12,1.91,-2.69,0,0,1,35
-7.07,2.24,-2.97,0,0,1,35
-7.76,2.7,-3.22,0,0,1,35
-7.61,3.04,-3.57,0,0,1,35
-7.34,3.08,-3.52,0,0,1,35
-7.73,3.33,-3.55,0,0,1,35
-7.19,3.51,-3.7,0,0,1,35
-7.4,3.94,-3.62,0,0,1,35
-7.72,3.85,-3.66,0,0,1,35
-8.43,3.38,-4.01,0,0,1,35
-9.13,3.68,-4.86,0,0,1,35
-11.16,3.6,-6.22,0,0,1,35
-11.98,3.87,-8.04,0,0,1,35
-11.63,3.4,-7.18,0,0,1,35
-9.24,2.76,-5.16,0,0,1,35
-8.41,2.34,-2.98,0,0,1,35
-6.97,1.0,-1.73,0,0,1,35
-6.7,-0.47,-1.77,0,0,1,35
-7.2,-1.49,-2.28,0,0,1,35
-8.57,-1.05,-3.48,0,0,1,35
-9.82,0.02,-4.95,0,0,1,35
-9.97,0.79,-6.17,0,0,1,35
-9.09,0.86,-6.06,0,0,1,35
-8.08,0.78,-4.73,0,0,1,35
-7.64,0.3,-3.86,0,0,1,35
-7.4,-0.07,-3.96,0,0,1,35
-8.02,0.23,-5.03,0,0,1,35
-8.82,1.23,-5.83,0,0,1,35
-8.83,2.21,-5.68,0,0,1,35
-8.15,2.63,-5.24,0,0,1,35
-8.01,2.04,-4.96,0,0,1,35
-8.03,1.56,-5.08,0,0,1,35
-7.9,1.25,-5.25,0,0,1,35
-7.98,1.31,-5.25,0,0,1,35
-8.14,1.48,-5.25,0,0,1,35
-8.03,1.95,-5.22,0,0,1,35
-9.96,0.01,-5.44,0,0,1,36
-9.0,0.03,-4.77,0,0,1,36
-7.61,1.02,-3.64,0,0,1,36
-6.75,1.47,-3.0,0,0,1,36
-6.57,1.61,-2.55,0,0,1,36
-7.29,1.06,-2.2,0,0,1,36
-8.25,0.74,-2.44,0,0,1,36
-8.94,1.2,-3.15,0,0,1,36
-9.32,2.77,-4.24,0,0,1,36
-10.05,3.9,-4.88,0,0,1,36
-10.41,4.85,-5.07,0,0,1,36
-9.81,4.57,-4.96,0,0,1,36
-8.6,3.33,-3.88,0,0,1,36
-7.57,2.32,-2.93,0,0,1,36
-7.12,1.91,-2.69,0,0,1,36
-7.07,2.24,-2.97,0,0,1,36
-7.76,2.7,-3.22,0,0,1,36
-7.61,3.04,-3.57,0,0,1,36
-7.34,3.08,-3.52,0,0,1,36
-7.73,3.33,-3.55,0,0,1,36
-7.19,3.51,-3.7,0,0,1,36
-7.4,3.94,-3.62,0,0,1,36
-7.72,3.85,-3.66,0,0,1,36
-8.43,3.38,-4.01,0,0,1,36
-9.13,3.68,-4.86,0,0,1,36
-11.16,3.6,-6.22,0,0,1,36
-11.98,3.87,-8.04,0,0,1,36
-11.63,3.4,-7.18,0,0,1,36
-9.24,2.76,-5.16,0,0,1,36
-8.41,2.34,-2.98,0,0,1,36
-6.97,1.0,-1.73,0,0,1,36
-6.7,-0.47,-1.77,0,0,1,36
-7.2,-1.49,-2.28,0,0,1,36
-8.57,-1.05,-3.48,0,0,1,36
-9.82,0.02,-4.95,0,0,1,36
-9.97,0.79,-6.17,0,0,1,36
-9.09,0.86,-6.06,0,0,1,36
-8.08,0.78,-4.73,0,0,1,36
-7.64,0.3,-3.86,0,0,1,36
-7.4,-0.07,-3.96,0,0,1,36
-8.02,0.23,-5.03,0,0,1,36
-8.82,1.23,-5.83,0,0,1,36
-8.83,2.21,-5.68,0,0,1,36
-8.15,2.63,-5.24,0,0,1,36
-8.01,2.04,-4.96,0,0,1,36
-8.03,1.56,-5.08,0,0,1,36
-7.9,1.25,-5.25,0,0,1,36
-7.98,1.31,-5.25,0,0,1,36
-8.14,1.48,-5.25,0,0,1,36
-8.03,1.95,-5.22,0,0,1,36
-8.01,2.09,-5.56,0,0,1,36
-8.09,2.32,-5.73,0,0,1,36
-8.24,2.54,-5.65,0,0,1,36
-8.12,2.6,-5.14,0,0,1,36
-7.63,2.2,-5.12,0,0,1,36
-7.63,1.77,-5.25,0,0,1,36
-7.8,1.31,-5.67,0,0,1,36
-8.01,1.16,-5.95,0,0,1,36
-7.91,1.35,-5.74,0,0,1,36
-7.67,1.51,-5.33,0,0,1,36
-7.69,1.72,-5.16,0,0,1,36
-7.59,2.11,-5.13,0,0,1,36
-7.55,2.28,-5.49,0,0,1,36
-7.65,1.87,-6.12,0,0,1,36
-7.49,1.18,-6.99,0,0,1,36
-7.67,0.9,-7.16,0,0,1,36
-8.51,0.99,-5.56,0,0,1,36
-9.09,2.27,-3.52,0,0,1,36
-9.63,3.94,-3.8,0,0,1,36
-10.5,2.56,-6.84,0,0,1,36
-10.66,0.08,-8.26,0,0,1,36
-9.92,-1.25,-8.4,0,0,1,36
-9.08,-1.08,-6.35,0,0,1,36
-6.82,0.7,-3.7,0,0,1,36
-5.6,1.89,-2.06,0,0,1,36
-5.76,1.87,-1.41,0,0,1,36
-6.96,0.01,-1.84,0,0,1,36
-8.26,-2.16,-3.13,0,0,1,36
-8.87,-2.72,-4.1,0,0,1,36
-9.92,-0.79,-4.89,0,0,1,36
-10.88,3.33,-5.45,0,0,1,36
-11.33,5.95,-5.86,0,0,1,36
-10.42,6.13,-5.85,0,0,1,36
-8.81,4.18,-5.07,0,0,1,36
-7.72,1.8,-3.71,0,0,1,36
-7.75,0.76,-3.48,0,0,1,36
-8.4,1.2,-4.41,0,0,1,36
-8.31,1.57,-4.99,0,0,1,36
-8.28,0.91,-4.56,0,0,1,36
-7.77,0.08,-3.94,0,0,1,36
-6.57,0.18,-4.26,0,0,1,36
-8.49,0.34,-4.99,0,0,1,36
-7.71,2.56,-4.44,0,0,1,36
-7.86,2.83,-3.88,0,0,1,36
-7.7,3.07,-4.09,0,0,1,36
-8.0,3.41,-4.61,0,0,1,36
-7.66,3.55,-3.81,0,0,1,36
-7.08,3.0,-3.32,0,0,1,36
-7.39,2.47,-3.64,0,0,1,36
-8.02,3.28,-4.11,0,0,1,36
-8.01,2.09,-5.56,0,0,1,37
-8.09,2.32,-5.73,0,0,1,37
-8.24,2.54,-5.65,0,0,1,37
-8.12,2.6,-5.14,0,0,1,37
-7.63,2.2,-5.12,0,0,1,37
-7.63,1.77,-5.25,0,0,1,37
-7.8,1.31,-5.67,0,0,1,37
-8.01,1.16,-5.95,0,0,1,37
-7.91,1.35,-5.74,0,0,1,37
-7.67,1.51,-5.33,0,0,1,37
-7.69,1.72,-5.16,0,0,1,37
-7.59,2.11,-5.13,0,0,1,37
-7.55,2.28,-5.49,0,0,1,37
-7.65,1.87,-6.12,0,0,1,37
-7.49,1.18,-6.99,0,0,1,37
-7.67,0.9,-7.16,0,0,1,37
-8.51,0.99,-5.56,0,0,1,37
-9.09,2.27,-3.52,0,0,1,37
-9.63,3.94,-3.8,0,0,1,37
-10.5,2.56,-6.84,0,0,1,37
-10.66,0.08,-8.26,0,0,1,37
-9.92,-1.25,-8.4,0,0,1,37
-9.08,-1.08,-6.35,0,0,1,37
-6.82,0.7,-3.7,0,0,1,37
-5.6,1.89,-2.06,0,0,1,37
-5.76,1.87,-1.41,0,0,1,37
-6.96,0.01,-1.84,0,0,1,37
-8.26,-2.16,-3.13,0,0,1,37
-8.87,-2.72,-4.1,0,0,1,37
-9.92,-0.79,-4.89,0,0,1,37
-10.88,3.33,-5.45,0,0,1,37
-11.33,5.95,-5.86,0,0,1,37
-10.42,6.13,-5.85,0,0,1,37
-8.81,4.18,-5.07,0,0,1,37
-7.72,1.8,-3.71,0,0,1,37
-7.75,0.76,-3.48,0,0,1,37
-8.4,1.2,-4.41,0,0,1,37
-8.31,1.57,-4.99,0,0,1,37
-8.28,0.91,-4.56,0,0,1,37
-7.77,0.08,-3.94,0,0,1,37
-6.57,0.18,-4.26,0,0,1,37
-8.49,0.34,-4.99,0,0,1,37
-7.71,2.56,-4.44,0,0,1,37
-7.86,2.83,-3.88,0,0,1,37
-7.7,3.07,-4.09,0,0,1,37
-8.0,3.41,-4.61,0,0,1,37
-7.66,3.55,-3.81,0,0,1,37
-7.08,3.0,-3.32,0,0,1,37
-7.39,2.47,-3.64,0,0,1,37
-8.02,3.28,-4.11,0,0,1,37
-7.88,4.33,-4.82,0,0,1,37
-7.37,4.29,-4.61,0,0,1,37
-9.1,2.61,-4.42,0,0,1,37
-10.77,2.93,-7.51,0,0,1,37
-13.8,0.27,-9.22,0,0,1,37
-11.93,0.12,-10.17,0,0,1,37
-7.26,0.43,-5.25,0,0,1,37
-5.29,2.4,-0.11,0,0,1,37
-6.69,3.51,0.45,0,0,1,37
-8.35,2.02,-2.91,0,0,1,37
-9.38,-0.97,-5.79,0,0,1,37
-8.81,-2.22,-5.55,0,0,1,37
-7.66,-1.09,-4.75,0,0,1,37
-7.67,0.73,-5.01,0,0,1,37
-8.33,1.65,-5.74,0,0,1,37
-8.49,1.39,-5.69,0,0,1,37
-8.41,1.03,-5.16,0,0,1,37
-8.32,0.09,-5.24,0,0,1,37
-8.17,-0.5,-5.13,0,0,1,37
-8.42,-0.16,-5.07,0,0,1,37
-8.52,0.63,-5.17,0,0,1,37
-8.25,1.12,-5.1,0,0,1,37
-8.39,0.82,-5.04,0,0,1,37
-8.41,0.11,-5.38,0,0,1,37
-8.43,-0.78,-5.6,0,0,1,37
-8.85,-1.58,-5.32,0,0,1,37
-8.51,-1.55,-4.76,0,0,1,37
-7.99,-0.61,-4.16,0,0,1,37
-8.04,0.17,-4.74,0,0,1,37
-8.44,0.38,-6.18,0,0,1,37
-8.67,-0.01,-6.73,0,0,1,37
-8.07,-0.1,-6.06,0,0,1,37
-7.84,0.17,-5.3,0,0,1,37
-7.61,0.6,-5.29,0,0,1,37
-7.57,1.05,-5.65,0,0,1,37
-7.73,1.01,-5.72,0,0,1,37
-7.73,0.58,-5.84,0,0,1,37
-7.9,0.0,-5.91,0,0,1,37
-7.99,-0.19,-5.92,0,0,1,37
-8.15,0.34,-5.92,0,0,1,37
-8.3,1.24,-5.72,0,0,1,37
-8.0,1.89,-5.67,0,0,1,37
-8.59,1.9,-5.81,0,0,1,37
-8.25,1.63,-6.01,0,0,1,37
-7.73,1.39,-5.82,0,0,1,37
-7.96,1.39,-5.5,0,0,1,37
-8.18,1.62,-5.58,0,0,1,37
-8.2,1.78,-5.46,0,0,1,37
-8.38,1.74,-4.99,0,0,1,37
-8.26,1.68,-4.58,0,0,1,37
-7.88,4.33,-4.82,0,0,1,38
-7.37,4.29,-4.61,0,0,1,38
-9.1,2.61,-4.42,0,0,1,38
-10.77,2.93,-7.51,0,0,1,38
-13.8,0.27,-9.22,0,0,1,38
-11.93,0.12,-10.17,0,0,1,38
-7.26,0.43,-5.25,0,0,1,38
-5.29,2.4,-0.11,0,0,1,38
-6.69,3.51,0.45,0,0,1,38
-8.35,2.02,-2.91,0,0,1,38
-9.38,-0.97,-5.79,0,0,1,38
-8.81,-2.22,-5.55,0,0,1,38
-7.66,-1.09,-4.75,0,0,1,38
-7.67,0.73,-5.01,0,0,1,38
-8.33,1.65,-5.74,0,0,1,38
-8.49,1.39,-5.69,0,0,1,38
-8.41,1.03,-5.16,0,0,1,38
-8.32,0.09,-5.24,0,0,1,38
-8.17,-0.5,-5.13,0,0,1,38
-8.42,-0.16,-5.07,0,0,1,38
-8.52,0.63,-5.17,0,0,1,38
-8.25,1.12,-5.1,0,0,1,38
-8.39,0.82,-5.04,0,0,1,38
-8.41,0.11,-5.38,0,0,1,38
-8.43,-0.78,-5.6,0,0,1,38
-8.85,-1.58,-5.32,0,0,1,38
-8.51,-1.55,-4.76,0,0,1,38
-7.99,-0.61,-4.16,0,0,1,38
-8.04,0.17,-4.74,0,0,1,38
-8.44,0.38,-6.18,0,0,1,38
-8.67,-0.01,-6.73,0,0,1,38
-8.07,-0.1,-6.06,0,0,1,38
-7.84,0.17,-5.3,0,0,1,38
-7.61,0.6,-5.29,0,0,1,38
-7.57,1.05,-5.65,0,0,1,38
-7.73,1.01,-5.72,0,0,1,38
-7.73,0.58,-5.84,0,0,1,38
-7.9,0.0,-5.91,0,0,1,38
-7.99,-0.19,-5.92,0,0,1,38
-8.15,0.34,-5.92,0,0,1,38
-8.3,1.24,-5.72,0,0,1,38
-8.0,1.89,-5.67,0,0,1,38
-8.59,1.9,-5.81,0,0,1,38
-8.25,1.63,-6.01,0,0,1,38
-7.73,1.39,-5.82,0,0,1,38
-7.96,1.39,-5.5,0,0,1,38
-8.18,1.62,-5.58,0,0,1,38
-8.2,1.78,-5.46,0,0,1,38
-8.38,1.74,-4.99,0,0,1,38
-8.26,1.68,-4.58,0,0,1,38
-8.24,1.63,-4.63,0,0,1,38
-8.62,1.54,-5.17,0,0,1,38
-8.81,0.99,-4.85,0,0,1,38
-8.13,1.17,-4.48,0,0,1,38
-8.34,1.74,-3.84,0,0,1,38
-9.26,0.73,-4.51,0,0,1,38
-9.38,-1.96,-5.65,0,0,1,38
-9.41,-4.25,-5.42,0,0,1,38
-7.87,-5.03,-4.26,0,0,1,38
-6.33,-3.38,-3.17,0,0,1,38
-7.39,-0.25,-3.2,0,0,1,38
-9.77,2.87,-4.53,0,0,1,38
-10.79,5.09,-5.64,0,0,1,38
-10.3,4.91,-6.02,0,0,1,38
-9.88,3.01,-4.63,0,0,1,38
-9.64,1.68,-3.53,0,0,1,38
-9.52,1.89,-3.94,0,0,1,38
-8.87,2.16,-4.65,0,0,1,38
-7.48,2.66,-3.94,0,0,1,38
-7.06,2.36,-2.63,0,0,1,38
-6.54,2.66,-2.42,0,0,1,38
-7.12,2.76,-2.85,0,0,1,38
-7.8,2.77,-2.63,0,0,1,38
-7.43,3.31,-2.33,0,0,1,38
-7.7,2.9,-2.63,0,0,1,38
-12.67,-0.28,-3.92,0,0,1,38
-12.47,-0.86,-9.79,0,0,1,38
-12.78,0.36,-12.33,0,0,1,38
-8.31,1.94,-7.44,0,0,1,38
-6.73,1.84,-2.08,0,0,1,38
-4.61,0.45,2.82,0,0,1,38
-7.37,-1.18,-0.96,0,0,1,38
-8.85,-3.02,-7.06,0,0,1,38
-9.12,-3.82,-10.54,0,0,1,38
-9.02,-1.72,-8.49,0,0,1,38
-7.83,2.55,-4.35,0,0,1,38
-7.27,4.68,-2.12,0,0,1,38
-7.85,3.93,-3.31,0,0,1,38
-8.77,1.81,-5.39,0,0,1,38
-9.05,0.53,-5.63,0,0,1,38
-8.75,-0.22,-4.57,0,0,1,38
-8.19,0.18,-3.43,0,0,1,38
-8.07,0.86,-3.31,0,0,1,38
-8.57,1.48,-4.32,0,0,1,38
-8.75,1.74,-4.67,0,0,1,38
-8.5,1.84,-4.53,0,0,1,38
-8.26,1.69,-4.35,0,0,1,38
-8.49,1.67,-4.46,0,0,1,38
-8.94,1.32,-4.79,0,0,1,38
-8.94,0.74,-4.9,0,0,1,38
-8.24,1.63,-4.63,0,0,1,39
-8.62,1.54,-5.17,0,0,1,39
-8.81,0.99,-4.85,0,0,1,39
-8.13,1.17,-4.48,0,0,1,39
-8.34,1.74,-3.84,0,0,1,39
-9.26,0.73,-4.51,0,0,1,39
-9.38,-1.96,-5.65,0,0,1,39
-9.41,-4.25,-5.42,0,0,1,39
-7.87,-5.03,-4.26,0,0,1,39
-6.33,-3.38,-3.17,0,0,1,39
-7.39,-0.25,-3.2,0,0,1,39
-9.77,2.87,-4.53,0,0,1,39
-10.79,5.09,-5.64,0,0,1,39
-10.3,4.91,-6.02,0,0,1,39
-9.88,3.01,-4.63,0,0,1,39
-9.64,1.68,-3.53,0,0,1,39
-9.52,1.89,-3.94,0,0,1,39
-8.87,2.16,-4.65,0,0,1,39
-7.48,2.66,-3.94,0,0,1,39
-7.06,2.36,-2.63,0,0,1,39
-6.54,2.66,-2.42,0,0,1,39
-7.12,2.76,-2.85,0,0,1,39
-7.8,2.77,-2.63,0,0,1,39
-7.43,3.31,-2.33,0,0,1,39
-7.7,2.9,-2.63,0,0,1,39
-12.67,-0.28,-3.92,0,0,1,39
-12.47,-0.86,-9.79,0,0,1,39
-12.78,0.36,-12.33,0,0,1,39
-8.31,1.94,-7.44,0,0,1,39
-6.73,1.84,-2.08,0,0,1,39
-4.61,0.45,2.82,0,0,1,39
-7.37,-1.18,-0.96,0,0,1,39
-8.85,-3.02,-7.06,0,0,1,39
-9.12,-3.82,-10.54,0,0,1,39
-9.02,-1.72,-8.49,0,0,1,39
-7.83,2.55,-4.35,0,0,1,39
-7.27,4.68,-2.12,0,0,1,39
-7.85,3.93,-3.31,0,0,1,39
-8.77,1.81,-5.39,0,0,1,39
-9.05,0.53,-5.63,0,0,1,39
-8.75,-0.22,-4.57,0,0,1,39
-8.19,0.18,-3.43,0,0,1,39
-8.07,0.86,-3.31,0,0,1,39
-8.57,1.48,-4.32,0,0,1,39
-8.75,1.74,-4.67,0,0,1,39
-8.5,1.84,-4.53,0,0,1,39
-8.26,1.69,-4.35,0,0,1,39
-8.49,1.67,-4.46,0,0,1,39
-8.94,1.32,-4.79,0,0,1,39
-8.94,0.74,-4.9,0,0,1,39
-8.7,0.08,-4.9,0,0,1,39
-8.34,-0.44,-4.84,0,0,1,39
-8.02,-0.76,-4.89,0,0,1,39
-7.76,-0.52,-5.14,0,0,1,39
-7.87,0.3,-5.24,0,0,1,39
-8.15,0.57,-4.96,0,0,1,39
-7.79,0.62,-5.07,0,0,1,39
-6.96,-0.94,-5.54,0,0,1,39
-6.47,-4.65,-4.79,0,0,1,39
-8.38,-2.21,5.56,0,0,1,39
-8.98,1.44,3.58,0,0,1,39
-13.26,-1.25,-3.12,0,0,1,39
-12.82,-2.93,-11.27,0,0,1,39
-14.43,-1.7,-10.5,0,0,1,39
-9.71,3.1,-4.95,0,0,1,39
-8.39,6.11,-1.06,0,0,1,39
-8.16,5.45,-0.74,0,0,1,39
-7.52,1.46,-2.88,0,0,1,39
-6.61,-2.05,-3.27,0,0,1,39
-4.23,-2.56,0.21,0,0,1,39
-3.57,-1.68,0.57,0,0,1,39
-4.9,0.09,0.25,0,0,1,39
-6.74,1.84,-0.52,0,0,1,39
-7.63,2.5,-1.94,0,0,1,39
-7.48,1.84,-3.36,0,0,1,39
-10.44,-4.54,-1.39,0,0,1,39
-8.31,-1.9,-3.84,0,0,1,39
-9.76,0.2,-3.99,0,0,1,39
-10.32,1.11,-1.29,0,0,1,39
-8.87,3.46,-0.91,0,0,1,39
-6.25,3.86,-0.58,0,0,1,39
-5.91,0.29,0.65,0,0,1,39
-8.96,-2.29,-0.83,0,0,1,39
-9.52,-1.05,-2.97,0,0,1,39
-8.38,0.34,-3.13,0,0,1,39
-7.69,0.97,-1.88,0,0,1,39
-7.7,1.78,-0.75,0,0,1,39
-8.19,1.79,-0.79,0,0,1,39
-8.6,0.64,-0.98,0,0,1,39
-8.38,0.15,0.36,0,0,1,39
-9.07,1.14,0.07,0,0,1,39
-10.83,4.1,-1.2,0,0,1,39
-15.7,7.32,-2.31,0,0,1,39
-16.62,9.33,-3.19,0,0,1,39
-15.13,7.6,-3.67,0,0,1,39
-14.39,6.39,-3.97,0,0,1,39
-13.58,3.76,-4.3,0,0,1,39
-14.02,3.88,-4.72,0,0,1,39
-12.65,4.19,-5.44,0,0,1,39
-10.37,2.7,-4.11,0,0,1,39
-8.7,0.08,-4.9,0,0,1,40
-8.34,-0.44,-4.84,0,0,1,40
-8.02,-0.76,-4.89,0,0,1,40
-7.76,-0.52,-5.14,0,0,1,40
-7.87,0.3,-5.24,0,0,1,40
-8.15,0.57,-4.96,0,0,1,40
-7.79,0.62,-5.07,0,0,1,40
-6.96,-0.94,-5.54,0,0,1,40
-6.47,-4.65,-4.79,0,0,1,40
-8.38,-2.21,5.56,0,0,1,40
-8.98,1.44,3.58,0,0,1,40
-13.26,-1.25,-3.12,0,0,1,40
-12.82,-2.93,-11.27,0,0,1,40
-14.43,-1.7,-10.5,0,0,1,40
-9.71,3.1,-4.95,0,0,1,40
-8.39,6.11,-1.06,0,0,1,40
-8.16,5.45,-0.74,0,0,1,40
-7.52,1.46,-2.88,0,0,1,40
-6.61,-2.05,-3.27,0,0,1,40
-4.23,-2.56,0.21,0,0,1,40
-3.57,-1.68,0.57,0,0,1,40
-4.9,0.09,0.25,0,0,1,40
-6.74,1.84,-0.52,0,0,1,40
-7.63,2.5,-1.94,0,0,1,40
-7.48,1.84,-3.36,0,0,1,40
-10.44,-4.54,-1.39,0,0,1,40
-8.31,-1.9,-3.84,0,0,1,40
-9.76,0.2,-3.99,0,0,1,40
-10.32,1.11,-1.29,0,0,1,40
-8.87,3.46,-0.91,0,0,1,40
-6.25,3.86,-0.58,0,0,1,40
-5.91,0.29,0.65,0,0,1,40
-8.96,-2.29,-0.83,0,0,1,40
-9.52,-1.05,-2.97,0,0,1,40
-8.38,0.34,-3.13,0,0,1,40
-7.69,0.97,-1.88,0,0,1,40
-7.7,1.78,-0.75,0,0,1,40
-8.19,1.79,-0.79,0,0,1,40
-8.6,0.64,-0.98,0,0,1,40
-8.38,0.15,0.36,0,0,1,40
-9.07,1.14,0.07,0,0,1,40
-10.83,4.1,-1.2,0,0,1,40
-15.7,7.32,-2.31,0,0,1,40
-16.62,9.33,-3.19,0,0,1,40
-15.13,7.6,-3.67,0,0,1,40
-14.39,6.39,-3.97,0,0,1,40
-13.58,3.76,-4.3,0,0,1,40
-14.02,3.88,-4.72,0,0,1,40
-12.65,4.19,-5.44,0,0,1,40
-10.37,2.7,-4.11,0,0,1,40
-8.59,0.64,-1.37,0,0,1,40
-6.27,1.35,-1.67,0,0,1,40
-6.49,2.93,-1.73,0,0,1,40
-6.32,3.21,-2.64,0,0,1,40
-6.89,3.12,-3.09,0,0,1,40
-8.33,3.08,-5.2,0,0,1,40
-8.53,3.73,-4.25,0,0,1,40
-7.98,2.81,-2.03,0,0,1,40
-8.24,2.34,-2.13,0,0,1,40
-8.38,2.48,-2.89,0,0,1,40
-9.53,3.28,-3.37,0,0,1,40
-9.78,4.06,-3.25,0,0,1,40
-10.23,3.79,-3.65,0,0,1,40
-9.61,3.8,-3.61,0,0,1,40
-9.13,3.95,-3.64,0,0,1,40
-8.71,3.91,-3.63,0,0,1,40
-8.44,3.7,-3.35,0,0,1,40
-8.22,3.46,-3.35,0,0,1,40
-8.48,3.15,-3.53,0,0,1,40
-8.37,3.15,-3.27,0,0,1,40
-8.31,3.47,-3.5,0,0,1,40
-8.48,3.41,-3.28,0,0,1,40
-8.43,3.35,-3.19,0,0,1,40
-8.26,3.25,-2.89,0,0,1,40
-8.69,3.23,-3.25,0,0,1,40
-8.82,3.45,-3.49,0,0,1,40
-8.82,3.56,-3.53,0,0,1,40
-8.56,3.33,-3.09,0,0,1,40
-8.69,3.21,-3.33,0,0,1,40
-8.69,3.15,-3.42,0,0,1,40
-8.63,3.1,-3.45,0,0,1,40
-8.68,3.16,-3.46,0,0,1,40
-8.56,3.29,-3.31,0,0,1,40
-8.49,3.32,-3.26,0,0,1,40
-8.61,3.56,-3.34,0,0,1,40
-8.6,3.54,-3.25,0,0,1,40
-8.62,3.78,-3.31,0,0,1,40
-8.7,3.83,-3.34,0,0,1,40
-8.79,3.3,-3.42,0,0,1,40
-8.88,3.2,-3.43,0,0,1,40
-9.02,2.75,-3.3,0,0,1,40
-8.92,3.13,-3.28,0,0,1,40
-8.84,3.25,-3.09,0,0,1,40
-8.76,3.13,-3.01,0,0,1,40
-6.91,1.24,-4.07,0,0,1,40
-8.75,2.94,-2.8,0,0,1,40
-9.09,2.51,-4.01,0,0,1,40
-9.14,3.3,-3.43,0,0,1,40
-8.75,3.48,-2.79,0,0,1,40
-8.65,3.48,-3.32,0,0,1,40
-8.59,0.64,-1.37,0,0,1,41
-6.27,1.35,-1.67,0,0,1,41
-6.49,2.93,-1.73,0,0,1,41
-6.32,3.21,-2.64,0,0,1,41
-6.89,3.12,-3.09,0,0,1,41
-8.33,3.08,-5.2,0,0,1,41
-8.53,3.73,-4.25,0,0,1,41
-7.98,2.81,-2.03,0,0,1,41
-8.24,2.34,-2.13,0,0,1,41
-8.38,2.48,-2.89,0,0,1,41
-9.53,3.28,-3.37,0,0,1,41
-9.78,4.06,-3.25,0,0,1,41
-10.23,3.79,-3.65,0,0,1,41
-9.61,3.8,-3.61,0,0,1,41
-9.13,3.95,-3.64,0,0,1,41
-8.71,3.91,-3.63,0,0,1,41
-8.44,3.7,-3.35,0,0,1,41
-8.22,3.46,-3.35,0,0,1,41
-8.48,3.15,-3.53,0,0,1,41
-8.37,3.15,-3.27,0,0,1,41
-8.31,3.47,-3.5,0,0,1,41
-8.48,3.41,-3.28,0,0,1,41
-8.43,3.35,-3.19,0,0,1,41
-8.26,3.25,-2.89,0,0,1,41
-8.69,3.23,-3.25,0,0,1,41
-8.82,3.45,-3.49,0,0,1,41
-8.82,3.56,-3.53,0,0,1,41
-8.56,3.33,-3.09,0,0,1,41
-8.69,3.21,-3.33,0,0,1,41
-8.69,3.15,-3.42,0,0,1,41
-8.63,3.1,-3.45,0,0,1,41
-8.68,3.16,-3.46,0,0,1,41
-8.56,3.29,-3.31,0,0,1,41
-8.49,3.32,-3.26,0,0,1,41
-8.61,3.56,-3.34,0,0,1,41
-8.6,3.54,-3.25,0,0,1,41
-8.62,3.78,-3.31,0,0,1,41
-8.7,3.83,-3.34,0,0,1,41
-8.79,3.3,-3.42,0,0,1,41
-8.88,3.2,-3.43,0,0,1,41
-9.02,2.75,-3.3,0,0,1,41
-8.92,3.13,-3.28,0,0,1,41
-8.84,3.25,-3.09,0,0,1,41
-8.76,3.13,-3.01,0,0,1,41
-6.91,1.24,-4.07,0,0,1,41
-8.75,2.94,-2.8,0,0,1,41
-9.09,2.51,-4.01,0,0,1,41
-9.14,3.3,-3.43,0,0,1,41
-8.75,3.48,-2.79,0,0,1,41
-8.65,3.48,-3.32,0,0,1,41
-8.71,3.11,-3.06,0,0,1,41
-8.94,3.37,-2.54,0,0,1,41
-9.13,3.41,-2.56,0,0,1,41
-9.3,3.24,-2.23,0,0,1,41
-9.68,2.8,-2.51,0,0,1,41
-9.08,2.99,-2.4,0,0,1,41
-9.21,2.72,-1.33,0,0,1,41
-9.25,2.31,-1.64,0,0,1,41
-10.17,1.84,-2.56,0,0,1,41
-10.49,1.67,-2.77,0,0,1,41
-10.69,1.5,-2.36,0,0,1,41
-10.22,1.12,-1.95,0,0,1,41
-10.44,0.78,-2.24,0,0,1,41
-12.45,1.79,-3.61,0,0,1,41
-10.44,1.37,-2.77,0,0,1,41
-9.3,0.3,-1.29,0,0,1,41
-9.65,-0.2,-1.36,0,0,1,41
-12.52,0.77,-3.66,0,0,1,41
-12.34,0.56,-4.39,0,0,1,41
-11.07,0.3,-3.01,0,0,1,41
-10.05,-0.34,-2.19,0,0,1,41
-9.57,-1.11,-1.92,0,0,1,41
-10.2,-1.4,-2.42,0,0,1,41
-10.82,-0.7,-3.66,0,0,1,41
-10.2,-0.68,-3.11,0,0,1,41
-9.81,-0.35,-2.39,0,0,1,41
-9.67,-0.38,-2.41,0,0,1,41
-9.66,-0.52,-2.94,0,0,1,41
-9.35,-1.23,-3.58,0,0,1,41
-9.44,-1.21,-3.37,0,0,1,41
-8.53,-1.32,-2.81,0,0,1,41
-7.8,-1.09,-2.42,0,0,1,41
-7.02,-0.73,-2.02,0,0,1,41
-6.79,-0.66,-1.95,0,0,1,41
-6.61,-0.58,-1.98,0,0,1,41
-6.76,-0.8,-2.48,0,0,1,41
-7.22,-0.66,-2.68,0,0,1,41
-7.97,-0.76,-3.02,0,0,1,41
-8.49,-0.44,-3.63,0,0,1,41
-9.01,-0.04,-3.88,0,0,1,41
-8.94,0.12,-4.19,0,0,1,41
-8.82,0.01,-4.49,0,0,1,41
-8.58,-0.29,-4.71,0,0,1,41
-7.7,-0.71,-4.36,0,0,1,41
-6.8,-1.05,-3.94,0,0,1,41
-6.23,-0.91,-3.33,0,0,1,41
-6.04,-0.57,-2.84,0,0,1,41
-6.17,-0.33,-2.62,0,0,1,41
-6.78,-0.25,-2.57,0,0,1,41
-7.56,-0.91,-3.09,0,0,1,41
-8.71,3.11,-3.06,0,0,1,42
-8.94,3.37,-2.54,0,0,1,42
-9.13,3.41,-2.56,0,0,1,42
-9.3,3.24,-2.23,0,0,1,42
-9.68,2.8,-2.51,0,0,1,42
-9.08,2.99,-2.4,0,0,1,42
-9.21,2.72,-1.33,0,0,1,42
-9.25,2.31,-1.64,0,0,1,42
-10.17,1.84,-2.56,0,0,1,42
-10.49,1.67,-2.77,0,0,1,42
-10.69,1.5,-2.36,0,0,1,42
-10.22,1.12,-1.95,0,0,1,42
-10.44,0.78,-2.24,0,0,1,42
-12.45,1.79,-3.61,0,0,1,42
-10.44,1.37,-2.77,0,0,1,42
-9.3,0.3,-1.29,0,0,1,42
-9.65,-0.2,-1.36,0,0,1,42
-12.52,0.77,-3.66,0,0,1,42
-12.34,0.56,-4.39,0,0,1,42
-11.07,0.3,-3.01,0,0,1,42
-10.05,-0.34,-2.19,0,0,1,42
-9.57,-1.11,-1.92,0,0,1,42
-10.2,-1.4,-2.42,0,0,1,42
-10.82,-0.7,-3.66,0,0,1,42
-10.2,-0.68,-3.11,0,0,1,42
-9.81,-0.35,-2.39,0,0,1,42
-9.67,-0.38,-2.41,0,0,1,42
-9.66,-0.52,-2.94,0,0,1,42
-9.35,-1.23,-3.58,0,0,1,42
-9.44,-1.21,-3.37,0,0,1,42
-8.53,-1.32,-2.81,0,0,1,42
-7.8,-1.09,-2.42,0,0,1,42
-7.02,-0.73,-2.02,0,0,1,42
-6.79,-0.66,-1.95,0,0,1,42
-6.61,-0.58,-1.98,0,0,1,42
-6.76,-0.8,-2.48,0,0,1,42
-7.22,-0.66,-2.68,0,0,1,42
-7.97,-0.76,-3.02,0,0,1,42
-8.49,-0.44,-3.63,0,0,1,42
-9.01,-0.04,-3.88,0,0,1,42
-8.94,0.12,-4.19,0,0,1,42
-8.82,0.01,-4.49,0,0,1,42
-8.58,-0.29,-4.71,0,0,1,42
-7.7,-0.71,-4.36,0,0,1,42
-6.8,-1.05,-3.94,0,0,1,42
-6.23,-0.91,-3.33,0,0,1,42
-6.04,-0.57,-2.84,0,0,1,42
-6.17,-0.33,-2.62,0,0,1,42
-6.78,-0.25,-2.57,0,0,1,42
-7.56,-0.91,-3.09,0,0,1,42
-8.69,-1.14,-3.81,0,0,1,42
-9.2,-0.59,-4.95,0,0,1,42
-9.26,-0.33,-5.45,0,0,1,42
-9.12,0.37,-5.98,0,0,1,42
-9.29,1.21,-6.36,0,0,1,42
-9.28,1.57,-6.64,0,0,1,42
-9.57,1.21,-6.45,0,0,1,42
-9.2,0.86,-6.1,0,0,1,42
-8.13,0.49,-5.59,0,0,1,42
-7.71,0.3,-5.04,0,0,1,42
-7.13,0.2,-5.06,0,0,1,42
-7.41,-0.15,-5.25,0,0,1,42
-7.91,-0.16,-5.94,0,0,1,42
-7.9,0.12,-6.14,0,0,1,42
-7.8,0.53,-5.85,0,0,1,42
-7.79,1.27,-6.0,0,0,1,42
-7.9,1.94,-6.45,0,0,1,42
-7.91,2.22,-6.53,0,0,1,42
-7.88,2.24,-6.16,0,0,1,42
-8.05,2.15,-5.86,0,0,1,42
-8.62,1.04,-4.73,0,0,1,42
-8.67,0.93,-3.73,0,0,1,42
-8.2,1.56,-2.99,0,0,1,42
-8.27,1.35,-3.79,0,0,1,42
-8.94,0.34,-4.5,0,0,1,42
-8.97,-1.0,-4.77,0,0,1,42
-9.1,-0.38,-5.65,0,0,1,42
-9.93,1.2,-5.54,0,0,1,42
-10.13,2.65,-3.91,0,0,1,42
-9.82,2.74,-2.54,0,0,1,42
-10.08,2.2,-2.62,0,0,1,42
-9.81,2.19,-3.75,0,0,1,42
-9.03,2.34,-4.08,0,0,1,42
-8.18,2.49,-3.19,0,0,1,42
-7.61,2.52,-2.16,0,0,1,42
-7.81,2.15,-1.41,0,0,1,42
-7.91,2.19,-1.91,0,0,1,42
-8.26,2.33,-2.76,0,0,1,42
-8.5,2.54,-3.19,0,0,1,42
-8.55,2.7,-3.15,0,0,1,42
-8.91,2.72,-2.92,0,0,1,42
-9.24,2.89,-2.91,0,0,1,42
-9.2,2.66,-2.91,0,0,1,42
-8.78,2.29,-2.78,0,0,1,42
-8.52,1.9,-2.15,0,0,1,42
-8.29,1.84,-1.63,0,0,1,42
-8.28,2.1,-1.77,0,0,1,42
-8.43,2.38,-2.31,0,0,1,42
-8.38,2.5,-2.42,0,0,1,42
-8.3,2.54,-2.24,0,0,1,42
-8.69,-1.14,-3.81,0,0,1,43
-9.2,-0.59,-4.95,0,0,1,43
-9.26,-0.33,-5.45,0,0,1,43
-9.12,0.37,-5.98,0,0,1,43
-9.29,1.21,-6.36,0,0,1,43
-9.28,1.57,-6.64,0,0,1,43
-9.57,1.21,-6.45,0,0,1,43
-9.2,0.86,-6.1,0,0,1,43
-8.13,0.49,-5.59,0,0,1,43
-7.71,0.3,-5.04,0,0,1,43
-7.13,0.2,-5.06,0,0,1,43
-7.41,-0.15,-5.25,0,0,1,43
-7.91,-0.16,-5.94,0,0,1,43
-7.9,0.12,-6.14,0,0,1,43
-7.8,0.53,-5.85,0,0,1,43
-7.79,1.27,-6.0,0,0,1,43
-7.9,1.94,-6.45,0,0,1,43
-7.91,2.22,-6.53,0,0,1,43
-7.88,2.24,-6.16,0,0,1,43
-8.05,2.15,-5.86,0,0,1,43
-8.62,1.04,-4.73,0,0,1,43
-8.67,0.93,-3.73,0,0,1,43
-8.2,1.56,-2.99,0,0,1,43
-8.27,1.35,-3.79,0,0,1,43
-8.94,0.34,-4.5,0,0,1,43
-8.97,-1.0,-4.77,0,0,1,43
-9.1,-0.38,-5.65,0,0,1,43
-9.93,1.2,-5.54,0,0,1,43
-10.13,2.65,-3.91,0,0,1,43
-9.82,2.74,-2.54,0,0,1,43
-10.08,2.2,-2.62,0,0,1,43
-9.81,2.19,-3.75,0,0,1,43
-9.03,2.34,-4.08,0,0,1,43
-8.18,2.49,-3.19,0,0,1,43
-7.61,2.52,-2.16,0,0,1,43
-7.81,2.15,-1.41,0,0,1,43
-7.91,2.19,-1.91,0,0,1,43
-8.26,2.33,-2.76,0,0,1,43
-8.5,2.54,-3.19,0,0,1,43
-8.55,2.7,-3.15,0,0,1,43
-8.91,2.72,-2.92,0,0,1,43
-9.24,2.89,-2.91,0,0,1,43
-9.2,2.66,-2.91,0,0,1,43
-8.78,2.29,-2.78,0,0,1,43
-8.52,1.9,-2.15,0,0,1,43
-8.29,1.84,-1.63,0,0,1,43
-8.28,2.1,-1.77,0,0,1,43
-8.43,2.38,-2.31,0,0,1,43
-8.38,2.5,-2.42,0,0,1,43
-8.3,2.54,-2.24,0,0,1,43
-8.42,2.58,-2.15,0,0,1,43
-8.35,2.58,-2.48,0,0,1,43
-8.48,2.51,-2.19,0,0,1,43
-8.7,2.39,-2.27,0,0,1,43
-9.22,1.68,-2.74,0,0,1,43
-9.16,0.61,-3.38,0,0,1,43
-9.2,0.34,-3.31,0,0,1,43
-9.55,0.63,-4.11,0,0,1,43
-10.55,0.62,-5.81,0,0,1,43
-13.23,1.4,-7.83,0,0,1,43
-11.82,3.24,-7.17,0,0,1,43
-7.69,2.94,-1.85,0,0,1,43
-5.98,1.89,0.5,0,0,1,43
-7.18,1.2,-2.31,0,0,1,43
-8.7,0.88,-5.21,0,0,1,43
-9.09,0.99,-6.11,0,0,1,43
-9.28,2.07,-5.33,0,0,1,43
-8.26,2.82,-4.97,0,0,1,43
-7.78,3.15,-4.8,0,0,1,43
-7.84,3.2,-4.52,0,0,1,43
-7.81,3.26,-4.71,0,0,1,43
-7.74,2.42,-5.12,0,0,1,43
-7.89,1.75,-5.78,0,0,1,43
-8.23,0.34,-6.0,0,0,1,43
-8.21,0.06,-5.42,0,0,1,43
-7.59,0.7,-5.02,0,0,1,43
-7.96,1.88,-5.01,0,0,1,43
-7.89,1.95,-5.89,0,0,1,43
-8.2,1.85,-6.03,0,0,1,43
-8.26,2.4,-5.8,0,0,1,43
-8.15,2.56,-5.28,0,0,1,43
-8.04,2.17,-5.35,0,0,1,43
-7.97,2.08,-5.45,0,0,1,43
-7.99,2.33,-5.51,0,0,1,43
-8.03,2.94,-5.51,0,0,1,43
-8.07,2.84,-5.37,0,0,1,43
-8.02,2.4,-5.45,0,0,1,43
-7.85,2.17,-5.73,0,0,1,43
-7.7,1.97,-6.08,0,0,1,43
-7.85,1.94,-5.59,0,0,1,43
-7.88,2.38,-4.91,0,0,1,43
-8.31,2.56,-4.39,0,0,1,43
-8.4,2.67,-4.13,0,0,1,43
-8.38,2.31,-4.44,0,0,1,43
-8.26,1.96,-5.45,0,0,1,43
-8.46,1.94,-6.03,0,0,1,43
-8.03,2.05,-5.8,0,0,1,43
-7.62,2.52,-5.07,0,0,1,43
-7.65,3.06,-4.77,0,0,1,43
-8.08,2.95,-5.32,0,0,1,43
-8.42,2.58,-2.15,0,0,1,44
-8.35,2.58,-2.48,0,0,1,44
-8.48,2.51,-2.19,0,0,1,44
-8.7,2.39,-2.27,0,0,1,44
-9.22,1.68,-2.74,0,0,1,44
-9.16,0.61,-3.38,0,0,1,44
-9.2,0.34,-3.31,0,0,1,44
-9.55,0.63,-4.11,0,0,1,44
-10.55,0.62,-5.81,0,0,1,44
-13.23,1.4,-7.83,0,0,1,44
-11.82,3.24,-7.17,0,0,1,44
-7.69,2.94,-1.85,0,0,1,44
-5.98,1.89,0.5,0,0,1,44
-7.18,1.2,-2.31,0,0,1,44
-8.7,0.88,-5.21,0,0,1,44
-9.09,0.99,-6.11,0,0,1,44
-9.28,2.07,-5.33,0,0,1,44
-8.26,2.82,-4.97,0,0,1,44
-7.78,3.15,-4.8,0,0,1,44
-7.84,3.2,-4.52,0,0,1,44
-7.81,3.26,-4.71,0,0,1,44
-7.74,2.42,-5.12,0,0,1,44
-7.89,1.75,-5.78,0,0,1,44
-8.23,0.34,-6.0,0,0,1,44
-8.21,0.06,-5.42,0,0,1,44
-7.59,0.7,-5.02,0,0,1,44
-7.96,1.88,-5.01,0,0,1,44
-7.89,1.95,-5.89,0,0,1,44
-8.2,1.85,-6.03,0,0,1,44
-8.26,2.4,-5.8,0,0,1,44
-8.15,2.56,-5.28,0,0,1,44
-8.04,2.17,-5.35,0,0,1,44
-7.97,2.08,-5.45,0,0,1,44
-7.99,2.33,-5.51,0,0,1,44
-8.03,2.94,-5.51,0,0,1,44
-8.07,2.84,-5.37,0,0,1,44
-8.02,2.4,-5.45,0,0,1,44
-7.85,2.17,-5.73,0,0,1,44
-7.7,1.97,-6.08,0,0,1,44
-7.85,1.94,-5.59,0,0,1,44
-7.88,2.38,-4.91,0,0,1,44
-8.31,2.56,-4.39,0,0,1,44
-8.4,2.67,-4.13,0,0,1,44
-8.38,2.31,-4.44,0,0,1,44
-8.26,1.96,-5.45,0,0,1,44
-8.46,1.94,-6.03,0,0,1,44
-8.03,2.05,-5.8,0,0,1,44
-7.62,2.52,-5.07,0,0,1,44
-7.65,3.06,-4.77,0,0,1,44
-8.08,2.95,-5.32,0,0,1,44
-8.59,2.32,-5.74,0,0,1,44
-8.45,1.79,-5.53,0,0,1,44
-8.34,1.47,-5.18,0,0,1,44
-8.03,1.4,-4.86,0,0,1,44
-7.89,1.48,-4.99,0,0,1,44
-7.77,2.02,-5.22,0,0,1,44
-7.81,2.7,-5.28,0,0,1,44
-8.08,2.85,-5.52,0,0,1,44
-7.93,2.51,-5.38,0,0,1,44
-7.95,2.2,-5.17,0,0,1,44
-7.84,1.9,-5.05,0,0,1,44
-7.87,1.9,-5.16,0,0,1,44
-8.04,1.99,-5.39,0,0,1,44
-8.16,2.14,-5.39,0,0,1,44
-8.05,2.17,-5.48,0,0,1,44
-8.13,2.0,-5.47,0,0,1,44
-8.21,1.73,-5.48,0,0,1,44
-8.28,1.57,-5.61,0,0,1,44
-8.3,1.41,-5.52,0,0,1,44
-8.34,1.44,-5.46,0,0,1,44
-8.43,1.42,-5.23,0,0,1,44
-8.33,1.54,-5.25,0,0,1,44
-8.19,1.46,-5.15,0,0,1,44
-8.16,1.51,-5.1,0,0,1,44
-8.27,1.65,-5.13,0,0,1,44
-8.07,1.72,-5.11,0,0,1,44
-8.19,1.76,-5.05,0,0,1,44
-8.24,1.88,-5.07,0,0,1,44
-8.27,1.95,-5.03,0,0,1,44
-8.23,1.93,-5.04,0,0,1,44
-8.19,1.85,-5.11,0,0,1,44
-8.16,1.82,-5.09,0,0,1,44
-8.19,1.82,-5.09,0,0,1,44
-8.13,1.78,-5.06,0,0,1,44
-8.1,1.69,-5.0,0,0,1,44
-8.2,1.65,-4.86,0,0,1,44
-8.23,1.64,-4.82,0,0,1,44
-8.19,1.62,-4.82,0,0,1,44
-8.36,1.6,-5.05,0,0,1,44
-8.43,1.76,-5.35,0,0,1,44
-8.34,1.78,-5.23,0,0,1,44
-8.33,1.58,-4.98,0,0,1,44
-8.02,1.66,-4.91,0,0,1,44
-8.2,1.91,-4.95,0,0,1,44
-8.24,2.05,-4.95,0,0,1,44
-8.25,2.02,-4.95,0,0,1,44
-8.3,1.87,-4.95,0,0,1,44
-8.26,1.79,-5.08,0,0,1,44
-8.36,1.73,-5.09,0,0,1,44
-8.31,1.68,-5.08,0,0,1,44
-8.59,2.32,-5.74,0,0,1,45
-8.45,1.79,-5.53,0,0,1,45
-8.34,1.47,-5.18,0,0,1,45
-8.03,1.4,-4.86,0,0,1,45
-7.89,1.48,-4.99,0,0,1,45
-7.77,2.02,-5.22,0,0,1,45
-7.81,2.7,-5.28,0,0,1,45
-8.08,2.85,-5.52,0,0,1,45
-7.93,2.51,-5.38,0,0,1,45
-7.95,2.2,-5.17,0,0,1,45
-7.84,1.9,-5.05,0,0,1,45
-7.87,1.9,-5.16,0,0,1,45
-8.04,1.99,-5.39,0,0,1,45
-8.16,2.14,-5.39,0,0,1,45
-8.05,2.17,-5.48,0,0,1,45
-8.13,2.0,-5.47,0,0,1,45
-8.21,1.73,-5.48,0,0,1,45
-8.28,1.57,-5.61,0,0,1,45
-8.3,1.41,-5.52,0,0,1,45
-8.34,1.44,-5.46,0,0,1,45
-8.43,1.42,-5.23,0,0,1,45
-8.33,1.54,-5.25,0,0,1,45
-8.19,1.46,-5.15,0,0,1,45
-8.16,1.51,-5.1,0,0,1,45
-8.27,1.65,-5.13,0,0,1,45
-8.07,1.72,-5.11,0,0,1,45
-8.19,1.76,-5.05,0,0,1,45
-8.24,1.88,-5.07,0,0,1,45
-8.27,1.95,-5.03,0,0,1,45
-8.23,1.93,-5.04,0,0,1,45
-8.19,1.85,-5.11,0,0,1,45
-8.16,1.82,-5.09,0,0,1,45
-8.19,1.82,-5.09,0,0,1,45
-8.13,1.78,-5.06,0,0,1,45
-8.1,1.69,-5.0,0,0,1,45
-8.2,1.65,-4.86,0,0,1,45
-8.23,1.64,-4.82,0,0,1,45
-8.19,1.62,-4.82,0,0,1,45
-8.36,1.6,-5.05,0,0,1,45
-8.43,1.76,-5.35,0,0,1,45
-8.34,1.78,-5.23,0,0,1,45
-8.33,1.58,-4.98,0,0,1,45
-8.02,1.66,-4.91,0,0,1,45
-8.2,1.91,-4.95,0,0,1,45
-8.24,2.05,-4.95,0,0,1,45
-8.25,2.02,-4.95,0,0,1,45
-8.3,1.87,-4.95,0,0,1,45
-8.26,1.79,-5.08,0,0,1,45
-8.36,1.73,-5.09,0,0,1,45
-8.31,1.68,-5.08,0,0,1,45
-8.26,1.66,-5.05,0,0,1,45
-8.25,1.72,-5.09,0,0,1,45
-8.34,1.68,-5.09,0,0,1,45
-8.27,1.7,-5.15,0,0,1,45
-8.24,1.81,-5.05,0,0,1,45
-8.27,1.94,-5.05,0,0,1,45
-8.22,1.91,-5.13,0,0,1,45
-8.26,1.77,-5.06,0,0,1,45
-8.22,1.66,-5.1,0,0,1,45
-8.24,1.76,-5.15,0,0,1,45
-8.28,1.82,-5.05,0,0,1,45
-8.24,1.73,-5.02,0,0,1,45
-8.23,1.7,-4.96,0,0,1,45
-8.24,1.68,-5.02,0,0,1,45
-8.3,1.71,-5.08,0,0,1,45
-8.24,1.68,-5.05,0,0,1,45
-8.33,1.65,-5.0,0,0,1,45
-8.32,1.64,-5.1,0,0,1,45
-8.26,1.57,-5.13,0,0,1,45
-8.25,1.76,-4.93,0,0,1,45
-8.24,1.87,-4.96,0,0,1,45
-8.25,1.79,-4.95,0,0,1,45
-8.31,1.68,-5.01,0,0,1,45
-8.25,1.67,-5.04,0,0,1,45
-8.32,1.88,-5.06,0,0,1,45
-8.33,1.84,-4.99,0,0,1,45
-8.23,1.71,-4.92,0,0,1,45
-8.21,1.73,-4.89,0,0,1,45
-8.26,1.77,-4.93,0,0,1,45
-8.35,1.79,-4.97,0,0,1,45
-8.36,1.73,-5.02,0,0,1,45
-8.26,1.68,-4.96,0,0,1,45
-8.26,1.77,-4.86,0,0,1,45
-8.25,1.72,-4.92,0,0,1,45
-8.26,1.62,-4.91,0,0,1,45
-8.33,1.57,-4.93,0,0,1,45
-8.23,1.63,-4.91,0,0,1,45
-8.3,1.7,-4.88,0,0,1,45
-8.33,1.66,-4.91,0,0,1,45
-8.38,1.62,-5.0,0,0,1,45
-8.31,1.56,-5.06,0,0,1,45
-8.36,1.6,-4.93,0,0,1,45
-8.32,1.66,-4.84,0,0,1,45
-8.37,1.67,-4.91,0,0,1,45
-8.35,1.67,-5.09,0,0,1,45
-8.36,1.66,-4.89,0,0,1,45
-8.35,1.82,-4.84,0,0,1,45
-8.32,1.74,-5.01,0,0,1,45
-8.36,1.58,-5.1,0,0,1,45
-8.34,1.6,-4.94,0,0,1,45
-8.26,1.66,-5.05,0,0,1,46
-8.25,1.72,-5.09,0,0,1,46
-8.34,1.68,-5.09,0,0,1,46
-8.27,1.7,-5.15,0,0,1,46
-8.24,1.81,-5.05,0,0,1,46
-8.27,1.94,-5.05,0,0,1,46
-8.22,1.91,-5.13,0,0,1,46
-8.26,1.77,-5.06,0,0,1,46
-8.22,1.66,-5.1,0,0,1,46
-8.24,1.76,-5.15,0,0,1,46
-8.28,1.82,-5.05,0,0,1,46
-8.24,1.73,-5.02,0,0,1,46
-8.23,1.7,-4.96,0,0,1,46
-8.24,1.68,-5.02,0,0,1,46
-8.3,1.71,-5.08,0,0,1,46
-8.24,1.68,-5.05,0,0,1,46
-8.33,1.65,-5.0,0,0,1,46
-8.32,1.64,-5.1,0,0,1,46
-8.26,1.57,-5.13,0,0,1,46
-8.25,1.76,-4.93,0,0,1,46
-8.24,1.87,-4.96,0,0,1,46
-8.25,1.79,-4.95,0,0,1,46
-8.31,1.68,-5.01,0,0,1,46
-8.25,1.67,-5.04,0,0,1,46
-8.32,1.88,-5.06,0,0,1,46
-8.33,1.84,-4.99,0,0,1,46
-8.23,1.71,-4.92,0,0,1,46
-8.21,1.73,-4.89,0,0,1,46
-8.26,1.77,-4.93,0,0,1,46
-8.35,1.79,-4.97,0,0,1,46
-8.36,1.73,-5.02,0,0,1,46
-8.26,1.68,-4.96,0,0,1,46
-8.26,1.77,-4.86,0,0,1,46
-8.25,1.72,-4.92,0,0,1,46
-8.26,1.62,-4.91,0,0,1,46
-8.33,1.57,-4.93,0,0,1,46
-8.23,1.63,-4.91,0,0,1,46
-8.3,1.7,-4.88,0,0,1,46
-8.33,1.66,-4.91,0,0,1,46
-8.38,1.62,-5.0,0,0,1,46
-8.31,1.56,-5.06,0,0,1,46
-8.36,1.6,-4.93,0,0,1,46
-8.32,1.66,-4.84,0,0,1,46
-8.37,1.67,-4.91,0,0,1,46
-8.35,1.67,-5.09,0,0,1,46
-8.36,1.66,-4.89,0,0,1,46
-8.35,1.82,-4.84,0,0,1,46
-8.32,1.74,-5.01,0,0,1,46
-8.36,1.58,-5.1,0,0,1,46
-8.34,1.6,-4.94,0,0,1,46
-8.28,1.72,-4.85,0,0,1,46
-8.18,1.66,-4.9,0,0,1,46
-8.21,1.56,-5.02,0,0,1,46
-8.25,1.65,-5.15,0,0,1,46
-8.28,1.77,-5.23,0,0,1,46
-8.2,1.69,-5.05,0,0,1,46
-8.07,1.56,-4.92,0,0,1,46
-8.11,1.57,-4.96,0,0,1,46
-8.25,1.53,-5.07,0,0,1,46
-8.15,1.61,-5.14,0,0,1,46
-8.26,1.84,-5.09,0,0,1,46
-8.24,1.89,-4.85,0,0,1,46
-8.22,1.96,-5.03,0,0,1,46
-8.38,1.93,-5.1,0,0,1,46
-8.37,1.64,-5.11,0,0,1,46
-8.38,1.33,-5.32,0,0,1,46
-8.29,1.2,-5.11,0,0,1,46
-8.23,1.34,-4.92,0,0,1,46
-8.38,1.59,-4.97,0,0,1,46
-8.35,1.49,-5.06,0,0,1,46
-8.22,1.6,-4.94,0,0,1,46
-8.32,1.63,-4.91,0,0,1,46
-8.45,1.68,-5.01,0,0,1,46
-8.43,1.49,-5.21,0,0,1,46
-8.37,1.42,-5.23,0,0,1,46
-8.25,1.43,-4.96,0,0,1,46
-8.28,1.49,-4.91,0,0,1,46
-8.39,1.43,-5.03,0,0,1,46
-8.38,1.14,-5.23,0,0,1,46
-8.35,0.93,-5.2,0,0,1,46
-8.36,0.84,-5.13,0,0,1,46
-8.35,0.85,-4.87,0,0,1,46
-8.37,0.86,-4.97,0,0,1,46
-8.36,0.73,-5.13,0,0,1,46
-8.38,0.8,-5.03,0,0,1,46
-8.3,0.92,-5.0,0,0,1,46
-8.36,1.15,-4.91,0,0,1,46
-8.46,1.14,-4.85,0,0,1,46
-8.49,1.19,-4.75,0,0,1,46
-8.54,1.23,-4.78,0,0,1,46
-8.57,1.47,-4.9,0,0,1,46
-8.76,1.72,-4.96,0,0,1,46
-8.97,1.85,-4.79,0,0,1,46
-9.03,1.7,-4.62,0,0,1,46
-8.91,1.44,-4.7,0,0,1,46
-8.93,1.01,-4.71,0,0,1,46
-8.57,0.92,-4.49,0,0,1,46
-8.64,0.88,-4.21,0,0,1,46
-8.68,1.03,-4.25,0,0,1,46
-8.78,1.14,-4.27,0,0,1,46
-8.28,1.72,-4.85,0,0,1,47
-8.18,1.66,-4.9,0,0,1,47
-8.21,1.56,-5.02,0,0,1,47
-8.25,1.65,-5.15,0,0,1,47
-8.28,1.77,-5.23,0,0,1,47
-8.2,1.69,-5.05,0,0,1,47
-8.07,1.56,-4.92,0,0,1,47
-8.11,1.57,-4.96,0,0,1,47
-8.25,1.53,-5.07,0,0,1,47
-8.15,1.61,-5.14,0,0,1,47
-8.26,1.84,-5.09,0,0,1,47
-8.24,1.89,-4.85,0,0,1,47
-8.22,1.96,-5.03,0,0,1,47
-8.38,1.93,-5.1,0,0,1,47
-8.37,1.64,-5.11,0,0,1,47
-8.38,1.33,-5.32,0,0,1,47
-8.29,1.2,-5.11,0,0,1,47
-8.23,1.34,-4.92,0,0,1,47
-8.38,1.59,-4.97,0,0,1,47
-8.35,1.49,-5.06,0,0,1,47
-8.22,1.6,-4.94,0,0,1,47
-8.32,1.63,-4.91,0,0,1,47
-8.45,1.68,-5.01,0,0,1,47
-8.43,1.49,-5.21,0,0,1,47
-8.37,1.42,-5.23,0,0,1,47
-8.25,1.43,-4.96,0,0,1,47
-8.28,1.49,-4.91,0,0,1,47
-8.39,1.43,-5.03,0,0,1,47
-8.38,1.14,-5.23,0,0,1,47
-8.35,0.93,-5.2,0,0,1,47
-8.36,0.84,-5.13,0,0,1,47
-8.35,0.85,-4.87,0,0,1,47
-8.37,0.86,-4.97,0,0,1,47
-8.36,0.73,-5.13,0,0,1,47
-8.38,0.8,-5.03,0,0,1,47
-8.3,0.92,-5.0,0,0,1,47
-8.36,1.15,-4.91,0,0,1,47
-8.46,1.14,-4.85,0,0,1,47
