timestamp,Accel_X,Accel_Y,Accel_Z,Fall_Indicator,Label,Event_ID,Window_Number
0,-8.18,-2.1,-4.91,0,0,1,1
20,-8.22,-2.12,-4.98,0,0,1,1
40,-8.18,-2.23,-5.02,0,0,1,1
60,-8.22,-2.22,-4.96,0,0,1,1
80,-8.17,-2.2,-4.92,0,0,1,1
100,-8.2,-2.28,-4.9,0,0,1,1
120,-8.19,-2.21,-4.95,0,0,1,1
140,-8.21,-2.21,-4.93,0,0,1,1
160,-8.23,-2.21,-4.93,0,0,1,1
180,-8.2,-2.21,-4.95,0,0,1,1
200,-8.15,-2.27,-4.94,0,0,1,1
220,-8.2,-2.23,-4.93,0,0,1,1
240,-8.17,-2.25,-4.94,0,0,1,1
260,-8.14,-2.22,-4.88,0,0,1,1
280,-8.17,-2.28,-4.9,0,0,1,1
300,-8.27,-2.23,-4.96,0,0,1,1
320,-8.28,-2.17,-4.82,0,0,1,1
340,-8.26,-2.22,-4.87,0,0,1,1
360,-8.25,-2.21,-4.82,0,0,1,1
380,-8.28,-2.07,-4.82,0,0,1,1
400,-8.32,-2.11,-4.84,0,0,1,1
420,-8.15,-2.21,-4.75,0,0,1,1
440,-8.13,-2.3,-4.7,0,0,1,1
460,-8.14,-2.42,-4.77,0,0,1,1
480,-8.17,-2.38,-4.88,0,0,1,1
500,-8.27,-2.28,-4.93,0,0,1,1
520,-8.22,-2.23,-4.93,0,0,1,1
540,-8.25,-2.1,-4.76,0,0,1,1
560,-8.37,-1.96,-4.89,0,0,1,1
580,-8.27,-2.05,-4.96,0,0,1,1
600,-8.19,-2.17,-4.88,0,0,1,1
620,-8.3,-1.97,-4.96,0,0,1,1
640,-8.41,-1.74,-5.02,0,0,1,1
660,-8.42,-1.61,-4.88,0,0,1,1
680,-8.38,-1.41,-4.92,0,0,1,1
700,-8.48,-1.48,-4.98,0,0,1,1
720,-8.32,-1.84,-4.91,0,0,1,1
740,-8.12,-2.22,-4.72,0,0,1,1
760,-8.11,-2.14,-4.79,0,0,1,1
780,-8.3,-1.74,-5.04,0,0,1,1
800,-8.52,-1.4,-5.02,0,0,1,1
820,-8.42,-1.4,-4.9,0,0,1,1
840,-8.27,-1.88,-4.84,0,0,1,1
860,-8.15,-2.22,-4.8,0,0,1,1
880,-8.1,-2.15,-4.85,0,0,1,1
900,-8.08,-1.94,-4.84,0,0,1,1
920,-8.25,-1.61,-4.59,0,0,1,1
940,-8.45,-1.54,-5.03,0,0,1,1
960,-8.44,-1.58,-5.14,0,0,1,1
980,-8.44,-1.51,-4.95,0,0,1,1
1000,-8.28,-1.41,-4.76,0,0,1,1
1020,-8.13,-1.3,-4.71,0,0,1,1
1040,-8.22,-1.16,-4.97,0,0,1,1
1060,-8.42,-1.28,-5.16,0,0,1,1
1080,-8.33,-1.47,-5.24,0,0,1,1
1100,-8.15,-1.71,-5.13,0,0,1,1
1120,-8.0,-1.72,-5.12,0,0,1,1
1140,-8.17,-1.64,-5.27,0,0,1,1
1160,-8.12,-1.73,-5.26,0,0,1,1
1180,-8.06,-1.89,-5.21,0,0,1,1
1200,-7.94,-2.02,-5.24,0,0,1,1
1220,-7.79,-2.04,-5.38,0,0,1,1
1240,-7.78,-2.02,-5.49,0,0,1,1
1260,-7.96,-1.85,-5.59,0,0,1,1
1280,-7.8,-1.92,-5.55,0,0,1,1
1300,-7.95,-1.54,-5.56,0,0,1,1
1320,-7.81,-1.05,-5.46,0,0,1,1
1340,-7.63,-1.16,-5.7,0,0,1,1
1360,-7.67,-1.34,-6.16,0,0,1,1
1380,-7.86,-1.15,-6.49,0,0,1,1
1400,-7.84,-0.53,-6.53,0,0,1,1
1420,-7.89,-0.25,-6.56,0,0,1,1
1440,-7.99,-0.2,-6.56,0,0,1,1
1460,-7.97,-0.3,-6.38,0,0,1,1
1480,-8.02,-0.21,-6.13,0,0,1,1
1500,-8.01,0.22,-6.26,0,0,1,1
1520,-8.1,0.69,-6.33,0,0,1,1
1540,-8.15,0.75,-6.28,0,0,1,1
1560,-8.0,0.51,-6.16,0,0,1,1
1580,-7.69,0.11,-6.25,0,0,1,1
1600,-7.6,-0.59,-6.26,0,0,1,1
1620,-7.43,-0.87,-6.41,0,0,1,1
1640,-7.58,-0.85,-6.56,0,0,1,1
1660,-7.97,-0.72,-6.71,0,0,1,1
1680,-8.01,-0.15,-6.64,0,0,1,1
1700,-7.89,0.17,-6.43,0,0,1,1
1720,-7.67,0.12,-6.1,0,0,1,1
1740,-7.33,-0.17,-5.68,0,0,1,1
1760,-7.34,-0.68,-5.97,0,0,1,1
1780,-7.43,-0.81,-6.67,0,0,1,1
1800,-7.46,-0.88,-7.07,0,0,1,1
1820,-7.83,-1.56,-7.02,0,0,1,1
1840,-7.71,-1.7,-6.19,0,0,1,1
1860,-7.87,-1.44,-5.64,0,0,1,1
1880,-7.73,-1.08,-5.2,0,0,1,1
1900,-7.94,-1.58,-6.04,0,0,1,1
1920,-8.07,-1.77,-5.88,0,0,1,1
1940,-8.34,-1.87,-5.26,0,0,1,1
1960,-8.29,-1.58,-4.38,0,0,1,1
1980,-7.67,-0.19,-3.46,0,0,1,1
1000,-8.28,-1.41,-4.76,0,0,1,2
1020,-8.13,-1.3,-4.71,0,0,1,2
1040,-8.22,-1.16,-4.97,0,0,1,2
1060,-8.42,-1.28,-5.16,0,0,1,2
1080,-8.33,-1.47,-5.24,0,0,1,2
1100,-8.15,-1.71,-5.13,0,0,1,2
1120,-8.0,-1.72,-5.12,0,0,1,2
1140,-8.17,-1.64,-5.27,0,0,1,2
1160,-8.12,-1.73,-5.26,0,0,1,2
1180,-8.06,-1.89,-5.21,0,0,1,2
1200,-7.94,-2.02,-5.24,0,0,1,2
1220,-7.79,-2.04,-5.38,0,0,1,2
1240,-7.78,-2.02,-5.49,0,0,1,2
1260,-7.96,-1.85,-5.59,0,0,1,2
1280,-7.8,-1.92,-5.55,0,0,1,2
1300,-7.95,-1.54,-5.56,0,0,1,2
1320,-7.81,-1.05,-5.46,0,0,1,2
1340,-7.63,-1.16,-5.7,0,0,1,2
1360,-7.67,-1.34,-6.16,0,0,1,2
1380,-7.86,-1.15,-6.49,0,0,1,2
1400,-7.84,-0.53,-6.53,0,0,1,2
1420,-7.89,-0.25,-6.56,0,0,1,2
1440,-7.99,-0.2,-6.56,0,0,1,2
1460,-7.97,-0.3,-6.38,0,0,1,2
1480,-8.02,-0.21,-6.13,0,0,1,2
1500,-8.01,0.22,-6.26,0,0,1,2
1520,-8.1,0.69,-6.33,0,0,1,2
1540,-8.15,0.75,-6.28,0,0,1,2
1560,-8.0,0.51,-6.16,0,0,1,2
1580,-7.69,0.11,-6.25,0,0,1,2
1600,-7.6,-0.59,-6.26,0,0,1,2
1620,-7.43,-0.87,-6.41,0,0,1,2
1640,-7.58,-0.85,-6.56,0,0,1,2
1660,-7.97,-0.72,-6.71,0,0,1,2
1680,-8.01,-0.15,-6.64,0,0,1,2
1700,-7.89,0.17,-6.43,0,0,1,2
1720,-7.67,0.12,-6.1,0,0,1,2
1740,-7.33,-0.17,-5.68,0,0,1,2
1760,-7.34,-0.68,-5.97,0,0,1,2
1780,-7.43,-0.81,-6.67,0,0,1,2
1800,-7.46,-0.88,-7.07,0,0,1,2
1820,-7.83,-1.56,-7.02,0,0,1,2
1840,-7.71,-1.7,-6.19,0,0,1,2
1860,-7.87,-1.44,-5.64,0,0,1,2
1880,-7.73,-1.08,-5.2,0,0,1,2
1900,-7.94,-1.58,-6.04,0,0,1,2
1920,-8.07,-1.77,-5.88,0,0,1,2
1940,-8.34,-1.87,-5.26,0,0,1,2
1960,-8.29,-1.58,-4.38,0,0,1,2
1980,-7.67,-0.19,-3.46,0,0,1,2
2000,-7.89,-0.2,-4.64,0,0,1,2
2020,-8.71,-0.84,-6.9,0,0,1,2
2040,-8.4,-0.85,-6.49,0,0,1,2
2060,-8.15,0.55,-4.51,0,0,1,2
2080,-8.84,1.67,-3.28,0,0,1,2
2100,-9.78,2.01,-4.03,0,0,1,2
2120,-11.06,1.74,-5.85,0,0,1,2
2140,-10.98,1.71,-7.23,0,0,1,2
2160,-10.27,1.77,-6.38,0,0,1,2
2180,-8.89,2.05,-4.02,0,0,1,2
2200,-8.47,2.01,-2.14,0,0,1,2
2220,-8.2,1.98,-2.42,0,0,1,2
2240,-9.07,1.32,-3.79,0,0,1,2
2260,-8.89,0.84,-4.2,0,0,1,2
2280,-7.77,0.51,-3.52,0,0,1,2
2300,-8.15,0.6,-2.46,0,0,1,2
2320,-8.29,0.68,-2.33,0,0,1,2
2340,-8.21,0.44,-3.1,0,0,1,2
2360,-8.18,0.1,-3.76,0,0,1,2
2380,-8.42,0.55,-3.88,0,0,1,2
2400,-8.43,1.55,-3.69,0,0,1,2
2420,-8.49,2.42,-3.64,0,0,1,2
2440,-8.81,2.88,-4.03,0,0,1,2
2460,-8.9,2.85,-4.32,0,0,1,2
2480,-8.7,2.24,-4.44,0,0,1,2
2500,-8.63,1.34,-4.52,0,0,1,2
2520,-8.81,0.56,-4.21,0,0,1,2
2540,-8.95,0.14,-3.99,0,0,1,2
2560,-8.65,0.5,-3.65,0,0,1,2
2580,-8.54,1.11,-3.61,0,0,1,2
2600,-8.65,1.77,-3.93,0,0,1,2
2620,-8.79,1.68,-4.54,0,0,1,2
2640,-9.01,1.31,-4.71,0,0,1,2
2660,-8.75,1.02,-4.49,0,0,1,2
2680,-8.35,0.72,-3.68,0,0,1,2
2700,-7.98,0.34,-3.26,0,0,1,2
2720,-8.35,0.01,-3.49,0,0,1,2
2740,-8.2,0.35,-3.83,0,0,1,2
2760,-8.57,0.77,-4.03,0,0,1,2
2780,-8.7,1.02,-4.12,0,0,1,2
2800,-8.39,1.34,-4.02,0,0,1,2
2820,-8.01,2.05,-3.83,0,0,1,2
2840,-8.3,2.68,-3.78,0,0,1,2
2860,-8.45,3.15,-4.47,0,0,1,2
2880,-8.75,3.01,-5.03,0,0,1,2
2900,-8.63,2.63,-5.24,0,0,1,2
2920,-6.93,2.81,-5.0,0,0,1,2
2940,-6.39,2.62,-4.07,0,0,1,2
2960,-12.97,-1.59,-5.07,0,0,1,2
2980,-14.73,-3.58,-12.0,0,0,1,2
2000,-7.89,-0.2,-4.64,0,0,1,3
2020,-8.71,-0.84,-6.9,0,0,1,3
2040,-8.4,-0.85,-6.49,0,0,1,3
2060,-8.15,0.55,-4.51,0,0,1,3
2080,-8.84,1.67,-3.28,0,0,1,3
2100,-9.78,2.01,-4.03,0,0,1,3
2120,-11.06,1.74,-5.85,0,0,1,3
2140,-10.98,1.71,-7.23,0,0,1,3
2160,-10.27,1.77,-6.38,0,0,1,3
2180,-8.89,2.05,-4.02,0,0,1,3
2200,-8.47,2.01,-2.14,0,0,1,3
2220,-8.2,1.98,-2.42,0,0,1,3
2240,-9.07,1.32,-3.79,0,0,1,3
2260,-8.89,0.84,-4.2,0,0,1,3
2280,-7.77,0.51,-3.52,0,0,1,3
2300,-8.15,0.6,-2.46,0,0,1,3
2320,-8.29,0.68,-2.33,0,0,1,3
2340,-8.21,0.44,-3.1,0,0,1,3
2360,-8.18,0.1,-3.76,0,0,1,3
2380,-8.42,0.55,-3.88,0,0,1,3
2400,-8.43,1.55,-3.69,0,0,1,3
2420,-8.49,2.42,-3.64,0,0,1,3
2440,-8.81,2.88,-4.03,0,0,1,3
2460,-8.9,2.85,-4.32,0,0,1,3
2480,-8.7,2.24,-4.44,0,0,1,3
2500,-8.63,1.34,-4.52,0,0,1,3
2520,-8.81,0.56,-4.21,0,0,1,3
2540,-8.95,0.14,-3.99,0,0,1,3
2560,-8.65,0.5,-3.65,0,0,1,3
2580,-8.54,1.11,-3.61,0,0,1,3
2600,-8.65,1.77,-3.93,0,0,1,3
2620,-8.79,1.68,-4.54,0,0,1,3
2640,-9.01,1.31,-4.71,0,0,1,3
2660,-8.75,1.02,-4.49,0,0,1,3
2680,-8.35,0.72,-3.68,0,0,1,3
2700,-7.98,0.34,-3.26,0,0,1,3
2720,-8.35,0.01,-3.49,0,0,1,3
2740,-8.2,0.35,-3.83,0,0,1,3
2760,-8.57,0.77,-4.03,0,0,1,3
2780,-8.7,1.02,-4.12,0,0,1,3
2800,-8.39,1.34,-4.02,0,0,1,3
2820,-8.01,2.05,-3.83,0,0,1,3
2840,-8.3,2.68,-3.78,0,0,1,3
2860,-8.45,3.15,-4.47,0,0,1,3
2880,-8.75,3.01,-5.03,0,0,1,3
2900,-8.63,2.63,-5.24,0,0,1,3
2920,-6.93,2.81,-5.0,0,0,1,3
2940,-6.39,2.62,-4.07,0,0,1,3
2960,-12.97,-1.59,-5.07,0,0,1,3
2980,-14.73,-3.58,-12.0,0,0,1,3
3000,-11.97,-6.7,-11.56,0,0,1,3
3020,-6.72,-3.18,-2.42,0,0,1,3
3040,-6.22,0.86,0.64,0,0,1,3
3060,-7.56,4.17,-1.08,0,0,1,3
3080,-8.46,2.07,-2.87,0,0,1,3
3100,-9.0,-2.65,-5.56,0,0,1,3
3120,-9.79,-5.19,-7.71,0,0,1,3
3140,-8.65,-3.18,-6.04,0,0,1,3
3160,-7.1,-0.43,-3.76,0,0,1,3
3180,-7.32,1.03,-3.17,0,0,1,3
3200,-8.22,0.58,-4.63,0,0,1,3
3220,-8.74,-0.97,-6.45,0,0,1,3
3240,-8.16,-1.32,-6.71,0,0,1,3
3260,-8.01,-1.61,-6.23,0,0,1,3
3280,-7.93,-1.03,-5.42,0,0,1,3
3300,-7.58,-0.28,-4.77,0,0,1,3
3320,-7.64,0.31,-4.86,0,0,1,3
3340,-7.84,0.76,-5.34,0,0,1,3
3360,-8.05,0.72,-5.42,0,0,1,3
3380,-7.56,0.72,-5.13,0,0,1,3
3400,-7.06,0.94,-4.69,0,0,1,3
3420,-6.64,1.17,-4.71,0,0,1,3
3440,-7.35,1.17,-5.25,0,0,1,3
3460,-8.03,1.12,-5.88,0,0,1,3
3480,-9.03,0.81,-6.44,0,0,1,3
3500,-8.92,1.41,-6.39,0,0,1,3
3520,-8.38,1.13,-5.9,0,0,1,3
3540,-7.31,0.19,-5.75,0,0,1,3
3560,-8.39,-0.39,-4.72,0,0,1,3
3580,-7.24,0.13,-4.19,0,0,1,3
3600,-9.82,2.07,-4.56,0,0,1,3
3620,-11.24,4.62,-5.78,0,0,1,3
3640,-12.06,4.03,-9.19,0,0,1,3
3660,-12.03,0.25,-11.75,0,0,1,3
3680,-10.51,-1.06,-10.28,0,0,1,3
3700,-8.26,-0.87,-6.3,0,0,1,3
3720,-6.21,-0.74,-2.7,0,0,1,3
3740,-5.24,-1.76,0.65,0,0,1,3
3760,-4.94,-3.1,1.31,0,0,1,3
3780,-6.31,-2.8,-1.98,0,0,1,3
3800,-9.93,-1.9,-4.9,0,0,1,3
3820,-11.82,1.26,-7.2,0,0,1,3
3840,-12.33,3.2,-7.55,0,0,1,3
3860,-10.47,3.27,-5.6,0,0,1,3
3880,-8.22,2.18,-3.02,0,0,1,3
3900,-7.07,0.82,-1.36,0,0,1,3
3920,-6.81,0.16,-2.43,0,0,1,3
3940,-8.12,0.11,-3.85,0,0,1,3
3960,-8.62,0.48,-4.31,0,0,1,3
3980,-8.36,0.5,-3.76,0,0,1,3
3000,-11.97,-6.7,-11.56,0,0,1,4
3020,-6.72,-3.18,-2.42,0,0,1,4
3040,-6.22,0.86,0.64,0,0,1,4
3060,-7.56,4.17,-1.08,0,0,1,4
3080,-8.46,2.07,-2.87,0,0,1,4
3100,-9.0,-2.65,-5.56,0,0,1,4
3120,-9.79,-5.19,-7.71,0,0,1,4
3140,-8.65,-3.18,-6.04,0,0,1,4
3160,-7.1,-0.43,-3.76,0,0,1,4
3180,-7.32,1.03,-3.17,0,0,1,4
3200,-8.22,0.58,-4.63,0,0,1,4
3220,-8.74,-0.97,-6.45,0,0,1,4
3240,-8.16,-1.32,-6.71,0,0,1,4
3260,-8.01,-1.61,-6.23,0,0,1,4
3280,-7.93,-1.03,-5.42,0,0,1,4
3300,-7.58,-0.28,-4.77,0,0,1,4
3320,-7.64,0.31,-4.86,0,0,1,4
3340,-7.84,0.76,-5.34,0,0,1,4
3360,-8.05,0.72,-5.42,0,0,1,4
3380,-7.56,0.72,-5.13,0,0,1,4
3400,-7.06,0.94,-4.69,0,0,1,4
3420,-6.64,1.17,-4.71,0,0,1,4
3440,-7.35,1.17,-5.25,0,0,1,4
3460,-8.03,1.12,-5.88,0,0,1,4
3480,-9.03,0.81,-6.44,0,0,1,4
3500,-8.92,1.41,-6.39,0,0,1,4
3520,-8.38,1.13,-5.9,0,0,1,4
3540,-7.31,0.19,-5.75,0,0,1,4
3560,-8.39,-0.39,-4.72,0,0,1,4
3580,-7.24,0.13,-4.19,0,0,1,4
3600,-9.82,2.07,-4.56,0,0,1,4
3620,-11.24,4.62,-5.78,0,0,1,4
3640,-12.06,4.03,-9.19,0,0,1,4
3660,-12.03,0.25,-11.75,0,0,1,4
3680,-10.51,-1.06,-10.28,0,0,1,4
3700,-8.26,-0.87,-6.3,0,0,1,4
3720,-6.21,-0.74,-2.7,0,0,1,4
3740,-5.24,-1.76,0.65,0,0,1,4
3760,-4.94,-3.1,1.31,0,0,1,4
3780,-6.31,-2.8,-1.98,0,0,1,4
3800,-9.93,-1.9,-4.9,0,0,1,4
3820,-11.82,1.26,-7.2,0,0,1,4
3840,-12.33,3.2,-7.55,0,0,1,4
3860,-10.47,3.27,-5.6,0,0,1,4
3880,-8.22,2.18,-3.02,0,0,1,4
3900,-7.07,0.82,-1.36,0,0,1,4
3920,-6.81,0.16,-2.43,0,0,1,4
3940,-8.12,0.11,-3.85,0,0,1,4
3960,-8.62,0.48,-4.31,0,0,1,4
3980,-8.36,0.5,-3.76,0,0,1,4
4000,-7.98,0.21,-3.08,0,0,1,4
4020,-7.54,0.44,-3.06,0,0,1,4
4040,-7.43,1.04,-3.22,0,0,1,4
4060,-7.38,1.7,-3.63,0,0,1,4
4080,-8.23,1.64,-3.83,0,0,1,4
4100,-8.98,1.56,-4.43,0,0,1,4
4120,-8.79,1.7,-4.89,0,0,1,4
4140,-8.46,1.68,-4.4,0,0,1,4
4160,-8.28,2.28,-3.53,0,0,1,4
4180,-7.95,3.32,-3.24,0,0,1,4
4200,-8.07,4.68,-3.34,0,0,1,4
4220,-8.26,5.52,-3.6,0,0,1,4
4240,-14.23,2.39,-3.38,0,0,1,4
4260,-12.48,1.06,-9.29,0,0,1,4
4280,-13.02,-3.33,-10.42,0,0,1,4
4300,-9.61,-5.38,-6.45,0,0,1,4
4320,-8.21,-2.4,-0.4,0,0,1,4
4340,-8.16,1.82,0.17,0,0,1,4
4360,-8.34,2.16,-3.31,0,0,1,4
4380,-8.64,-1.15,-6.48,0,0,1,4
4400,-7.95,-3.06,-7.29,0,0,1,4
4420,-7.56,-2.9,-6.07,0,0,1,4
4440,-7.46,-1.52,-4.04,0,0,1,4
4460,-7.22,-1.39,-3.25,0,0,1,4
4480,-7.24,-1.29,-3.42,0,0,1,4
4500,-7.56,-0.06,-4.1,0,0,1,4
4520,-8.53,1.22,-5.22,0,0,1,4
4540,-8.88,1.6,-6.22,0,0,1,4
4560,-8.99,1.54,-6.74,0,0,1,4
4580,-8.9,1.09,-6.19,0,0,1,4
4600,-7.87,0.99,-4.84,0,0,1,4
4620,-7.37,1.41,-4.11,0,0,1,4
4640,-7.44,2.04,-4.17,0,0,1,4
4660,-7.78,2.61,-4.79,0,0,1,4
4680,-7.83,3.12,-5.37,0,0,1,4
4700,-7.7,3.19,-5.06,0,0,1,4
4720,-7.3,2.73,-4.39,0,0,1,4
4740,-7.54,1.34,-4.79,0,0,1,4
4760,-8.58,-0.49,-5.46,0,0,1,4
4780,-9.2,-1.15,-5.51,0,0,1,4
4800,-8.55,-0.21,-5.02,0,0,1,4
4820,-8.41,0.86,-4.35,0,0,1,4
4840,-8.0,1.09,-4.43,0,0,1,4
4860,-9.32,0.37,-4.21,0,0,1,4
4880,-7.74,0.29,-2.81,0,0,1,4
4900,-7.73,2.42,-3.05,0,0,1,4
4920,-10.46,4.49,-5.13,0,0,1,4
4940,-12.58,2.28,-8.53,0,0,1,4
4960,-11.23,-1.74,-10.0,0,0,1,4
4980,-11.53,-2.26,-9.86,0,0,1,4
4000,-7.98,0.21,-3.08,0,0,1,5
4020,-7.54,0.44,-3.06,0,0,1,5
4040,-7.43,1.04,-3.22,0,0,1,5
4060,-7.38,1.7,-3.63,0,0,1,5
4080,-8.23,1.64,-3.83,0,0,1,5
4100,-8.98,1.56,-4.43,0,0,1,5
4120,-8.79,1.7,-4.89,0,0,1,5
4140,-8.46,1.68,-4.4,0,0,1,5
4160,-8.28,2.28,-3.53,0,0,1,5
4180,-7.95,3.32,-3.24,0,0,1,5
4200,-8.07,4.68,-3.34,0,0,1,5
4220,-8.26,5.52,-3.6,0,0,1,5
4240,-14.23,2.39,-3.38,0,0,1,5
4260,-12.48,1.06,-9.29,0,0,1,5
4280,-13.02,-3.33,-10.42,0,0,1,5
4300,-9.61,-5.38,-6.45,0,0,1,5
4320,-8.21,-2.4,-0.4,0,0,1,5
4340,-8.16,1.82,0.17,0,0,1,5
4360,-8.34,2.16,-3.31,0,0,1,5
4380,-8.64,-1.15,-6.48,0,0,1,5
4400,-7.95,-3.06,-7.29,0,0,1,5
4420,-7.56,-2.9,-6.07,0,0,1,5
4440,-7.46,-1.52,-4.04,0,0,1,5
4460,-7.22,-1.39,-3.25,0,0,1,5
4480,-7.24,-1.29,-3.42,0,0,1,5
4500,-7.56,-0.06,-4.1,0,0,1,5
4520,-8.53,1.22,-5.22,0,0,1,5
4540,-8.88,1.6,-6.22,0,0,1,5
4560,-8.99,1.54,-6.74,0,0,1,5
4580,-8.9,1.09,-6.19,0,0,1,5
4600,-7.87,0.99,-4.84,0,0,1,5
4620,-7.37,1.41,-4.11,0,0,1,5
4640,-7.44,2.04,-4.17,0,0,1,5
4660,-7.78,2.61,-4.79,0,0,1,5
4680,-7.83,3.12,-5.37,0,0,1,5
4700,-7.7,3.19,-5.06,0,0,1,5
4720,-7.3,2.73,-4.39,0,0,1,5
4740,-7.54,1.34,-4.79,0,0,1,5
4760,-8.58,-0.49,-5.46,0,0,1,5
4780,-9.2,-1.15,-5.51,0,0,1,5
4800,-8.55,-0.21,-5.02,0,0,1,5
4820,-8.41,0.86,-4.35,0,0,1,5
4840,-8.0,1.09,-4.43,0,0,1,5
4860,-9.32,0.37,-4.21,0,0,1,5
4880,-7.74,0.29,-2.81,0,0,1,5
4900,-7.73,2.42,-3.05,0,0,1,5
4920,-10.46,4.49,-5.13,0,0,1,5
4940,-12.58,2.28,-8.53,0,0,1,5
4960,-11.23,-1.74,-10.0,0,0,1,5
4980,-11.53,-2.26,-9.86,0,0,1,5
5000,-10.7,-0.49,-8.08,0,0,1,5
5020,-9.1,0.7,-6.01,0,0,1,5
5040,-6.68,1.58,-3.6,0,0,1,5
5060,-6.23,6.0,-1.51,0,0,1,5
5080,-6.36,7.39,3.59,0,0,1,5
5100,-4.27,-0.04,0.59,0,0,1,5
5120,-7.38,-3.37,-6.74,0,0,1,5
5140,-11.69,-0.39,-10.05,0,0,1,5
5160,-12.5,2.98,-8.43,0,0,1,5
5180,-10.28,4.24,-4.66,0,0,1,5
5200,-8.02,4.3,-1.19,0,0,1,5
5220,-6.27,3.07,-0.36,0,0,1,5
5240,-6.86,1.75,-2.87,0,0,1,5
5260,-7.91,1.49,-3.94,0,0,1,5
5280,-8.01,1.71,-3.94,0,0,1,5
5300,-7.34,2.01,-2.5,0,0,1,5
5320,-6.53,2.69,-1.53,0,0,1,5
5340,-6.89,3.27,-2.35,0,0,1,5
5360,-7.53,3.3,-3.92,0,0,1,5
5380,-7.81,3.28,-4.57,0,0,1,5
5400,-7.8,3.34,-4.55,0,0,1,5
5420,-8.13,3.05,-4.13,0,0,1,5
5440,-8.55,3.61,-3.91,0,0,1,5
5460,-8.42,4.83,-3.74,0,0,1,5
5480,-7.78,5.66,-3.65,0,0,1,5
5500,-9.06,5.7,-3.38,0,0,1,5
5520,-12.72,4.89,-7.95,0,0,1,5
5540,-14.52,0.86,-11.77,0,0,1,5
5560,-11.37,-1.96,-7.82,0,0,1,5
5580,-8.16,-2.88,0.16,0,0,1,5
5600,-6.21,-0.44,1.1,0,0,1,5
5620,-6.52,2.63,-1.65,0,0,1,5
5640,-7.98,2.7,-5.04,0,0,1,5
5660,-8.92,1.14,-7.35,0,0,1,5
5680,-9.02,0.25,-7.55,0,0,1,5
5700,-8.43,0.58,-6.7,0,0,1,5
5720,-7.41,0.55,-4.29,0,0,1,5
5740,-6.86,-0.08,-2.4,0,0,1,5
5760,-6.48,1.47,-2.71,0,0,1,5
5780,-7.36,2.8,-4.96,0,0,1,5
5800,-8.22,3.06,-6.43,0,0,1,5
5820,-9.03,2.24,-7.03,0,0,1,5
5840,-9.06,1.12,-6.6,0,0,1,5
5860,-8.12,0.24,-5.32,0,0,1,5
5880,-7.53,0.57,-4.31,0,0,1,5
5900,-7.56,1.89,-4.12,0,0,1,5
5920,-7.9,2.96,-4.89,0,0,1,5
5940,-8.03,3.5,-5.66,0,0,1,5
5960,-7.86,3.57,-5.65,0,0,1,5
5980,-7.4,3.41,-5.06,0,0,1,5
5000,-10.7,-0.49,-8.08,0,0,1,6
5020,-9.1,0.7,-6.01,0,0,1,6
5040,-6.68,1.58,-3.6,0,0,1,6
5060,-6.23,6.0,-1.51,0,0,1,6
5080,-6.36,7.39,3.59,0,0,1,6
5100,-4.27,-0.04,0.59,0,0,1,6
5120,-7.38,-3.37,-6.74,0,0,1,6
5140,-11.69,-0.39,-10.05,0,0,1,6
5160,-12.5,2.98,-8.43,0,0,1,6
5180,-10.28,4.24,-4.66,0,0,1,6
5200,-8.02,4.3,-1.19,0,0,1,6
5220,-6.27,3.07,-0.36,0,0,1,6
5240,-6.86,1.75,-2.87,0,0,1,6
5260,-7.91,1.49,-3.94,0,0,1,6
5280,-8.01,1.71,-3.94,0,0,1,6
5300,-7.34,2.01,-2.5,0,0,1,6
5320,-6.53,2.69,-1.53,0,0,1,6
5340,-6.89,3.27,-2.35,0,0,1,6
5360,-7.53,3.3,-3.92,0,0,1,6
5380,-7.81,3.28,-4.57,0,0,1,6
5400,-7.8,3.34,-4.55,0,0,1,6
5420,-8.13,3.05,-4.13,0,0,1,6
5440,-8.55,3.61,-3.91,0,0,1,6
5460,-8.42,4.83,-3.74,0,0,1,6
5480,-7.78,5.66,-3.65,0,0,1,6
5500,-9.06,5.7,-3.38,0,0,1,6
5520,-12.72,4.89,-7.95,0,0,1,6
5540,-14.52,0.86,-11.77,0,0,1,6
5560,-11.37,-1.96,-7.82,0,0,1,6
5580,-8.16,-2.88,0.16,0,0,1,6
5600,-6.21,-0.44,1.1,0,0,1,6
5620,-6.52,2.63,-1.65,0,0,1,6
5640,-7.98,2.7,-5.04,0,0,1,6
5660,-8.92,1.14,-7.35,0,0,1,6
5680,-9.02,0.25,-7.55,0,0,1,6
5700,-8.43,0.58,-6.7,0,0,1,6
5720,-7.41,0.55,-4.29,0,0,1,6
5740,-6.86,-0.08,-2.4,0,0,1,6
5760,-6.48,1.47,-2.71,0,0,1,6
5780,-7.36,2.8,-4.96,0,0,1,6
5800,-8.22,3.06,-6.43,0,0,1,6
5820,-9.03,2.24,-7.03,0,0,1,6
5840,-9.06,1.12,-6.6,0,0,1,6
5860,-8.12,0.24,-5.32,0,0,1,6
5880,-7.53,0.57,-4.31,0,0,1,6
5900,-7.56,1.89,-4.12,0,0,1,6
5920,-7.9,2.96,-4.89,0,0,1,6
5940,-8.03,3.5,-5.66,0,0,1,6
5960,-7.86,3.57,-5.65,0,0,1,6
5980,-7.4,3.41,-5.06,0,0,1,6
6000,-7.11,3.06,-4.42,0,0,1,6
6020,-6.94,2.59,-4.39,0,0,1,6
6040,-7.12,2.08,-4.51,0,0,1,6
6060,-7.59,1.9,-4.82,0,0,1,6
6080,-8.87,2.02,-4.82,0,0,1,6
6100,-8.02,2.88,-4.9,0,0,1,6
6120,-8.32,3.32,-4.42,0,0,1,6
6140,-8.02,2.02,-5.26,0,0,1,6
6160,-7.63,1.54,-3.76,0,0,1,6
6180,-7.08,1.83,-4.01,0,0,1,6
6200,-8.86,4.12,-5.45,0,0,1,6
6220,-11.13,6.77,-6.56,0,0,1,6
6240,-11.6,5.99,-9.32,0,0,1,6
6260,-11.69,2.39,-11.38,0,0,1,6
6280,-10.19,0.46,-9.29,0,0,1,6
6300,-7.52,-0.19,-4.77,0,0,1,6
6320,-5.45,-1.34,-0.45,0,0,1,6
6340,-3.51,-2.54,2.62,0,0,1,6
6360,-4.28,-2.78,0.68,0,0,1,6
6380,-7.22,-1.79,-3.11,0,0,1,6
6400,-10.08,1.56,-6.25,0,0,1,6
6420,-12.24,5.15,-8.27,0,0,1,6
6440,-12.84,5.94,-8.84,0,0,1,6
6460,-10.05,4.66,-5.79,0,0,1,6
6480,-6.98,3.28,-1.44,0,0,1,6
6500,-5.74,1.77,0.14,0,0,1,6
6520,-7.44,1.15,-2.44,0,0,1,6
6540,-8.7,1.35,-4.87,0,0,1,6
6560,-9.73,1.84,-5.91,0,0,1,6
6580,-9.28,2.17,-5.01,0,0,1,6
6600,-7.71,2.84,-3.27,0,0,1,6
6620,-6.09,2.97,-2.4,0,0,1,6
6640,-5.96,3.22,-3.54,0,0,1,6
6660,-7.36,3.81,-4.54,0,0,1,6
6680,-7.38,4.36,-3.96,0,0,1,6
6700,-6.11,4.38,-3.97,0,0,1,6
6720,-6.64,3.62,-4.06,0,0,1,6
6740,-7.03,3.56,-4.55,0,0,1,6
6760,-8.26,4.23,-4.71,0,0,1,6
6780,-11.11,4.02,-7.9,0,0,1,6
6800,-12.29,1.93,-10.47,0,0,1,6
6820,-13.41,-0.69,-9.16,0,0,1,6
6840,-9.42,-0.7,-4.76,0,0,1,6
6860,-6.5,0.89,-1.0,0,0,1,6
6880,-8.19,3.05,-1.89,0,0,1,6
6900,-9.0,2.48,-4.41,0,0,1,6
6920,-8.73,0.75,-6.02,0,0,1,6
6940,-7.92,-1.19,-6.24,0,0,1,6
6960,-6.56,-0.77,-5.3,0,0,1,6
6980,-6.37,0.57,-4.74,0,0,1,6
6000,-7.11,3.06,-4.42,0,0,1,7
6020,-6.94,2.59,-4.39,0,0,1,7
6040,-7.12,2.08,-4.51,0,0,1,7
6060,-7.59,1.9,-4.82,0,0,1,7
6080,-8.87,2.02,-4.82,0,0,1,7
6100,-8.02,2.88,-4.9,0,0,1,7
6120,-8.32,3.32,-4.42,0,0,1,7
6140,-8.02,2.02,-5.26,0,0,1,7
6160,-7.63,1.54,-3.76,0,0,1,7
6180,-7.08,1.83,-4.01,0,0,1,7
6200,-8.86,4.12,-5.45,0,0,1,7
6220,-11.13,6.77,-6.56,0,0,1,7
6240,-11.6,5.99,-9.32,0,0,1,7
6260,-11.69,2.39,-11.38,0,0,1,7
6280,-10.19,0.46,-9.29,0,0,1,7
6300,-7.52,-0.19,-4.77,0,0,1,7
6320,-5.45,-1.34,-0.45,0,0,1,7
6340,-3.51,-2.54,2.62,0,0,1,7
6360,-4.28,-2.78,0.68,0,0,1,7
6380,-7.22,-1.79,-3.11,0,0,1,7
6400,-10.08,1.56,-6.25,0,0,1,7
6420,-12.24,5.15,-8.27,0,0,1,7
6440,-12.84,5.94,-8.84,0,0,1,7
6460,-10.05,4.66,-5.79,0,0,1,7
6480,-6.98,3.28,-1.44,0,0,1,7
6500,-5.74,1.77,0.14,0,0,1,7
6520,-7.44,1.15,-2.44,0,0,1,7
6540,-8.7,1.35,-4.87,0,0,1,7
6560,-9.73,1.84,-5.91,0,0,1,7
6580,-9.28,2.17,-5.01,0,0,1,7
6600,-7.71,2.84,-3.27,0,0,1,7
6620,-6.09,2.97,-2.4,0,0,1,7
6640,-5.96,3.22,-3.54,0,0,1,7
6660,-7.36,3.81,-4.54,0,0,1,7
6680,-7.38,4.36,-3.96,0,0,1,7
6700,-6.11,4.38,-3.97,0,0,1,7
6720,-6.64,3.62,-4.06,0,0,1,7
6740,-7.03,3.56,-4.55,0,0,1,7
6760,-8.26,4.23,-4.71,0,0,1,7
6780,-11.11,4.02,-7.9,0,0,1,7
6800,-12.29,1.93,-10.47,0,0,1,7
6820,-13.41,-0.69,-9.16,0,0,1,7
6840,-9.42,-0.7,-4.76,0,0,1,7
6860,-6.5,0.89,-1.0,0,0,1,7
6880,-8.19,3.05,-1.89,0,0,1,7
6900,-9.0,2.48,-4.41,0,0,1,7
6920,-8.73,0.75,-6.02,0,0,1,7
6940,-7.92,-1.19,-6.24,0,0,1,7
6960,-6.56,-0.77,-5.3,0,0,1,7
6980,-6.37,0.57,-4.74,0,0,1,7
7000,-7.69,1.91,-5.25,0,0,1,7
7020,-8.31,2.55,-6.21,0,0,1,7
7040,-7.78,2.05,-6.26,0,0,1,7
7060,-7.29,1.33,-6.26,0,0,1,7
7080,-6.88,0.46,-6.15,0,0,1,7
7100,-6.92,0.46,-6.51,0,0,1,7
7120,-7.07,0.78,-7.2,0,0,1,7
7140,-7.03,1.08,-7.22,0,0,1,7
7160,-6.95,0.77,-7.0,0,0,1,7
7180,-7.43,0.94,-6.95,0,0,1,7
7200,-8.01,1.35,-6.91,0,0,1,7
7220,-8.17,1.82,-6.58,0,0,1,7
7240,-7.17,1.83,-6.45,0,0,1,7
7260,-7.78,1.77,-5.69,0,0,1,7
7280,-7.76,-0.14,-5.46,0,0,1,7
7300,-8.79,-0.67,-3.99,0,0,1,7
7320,-9.69,-2.1,-5.36,0,0,1,7
7340,-8.92,-1.08,-6.23,0,0,1,7
7360,-9.37,-0.41,-7.5,0,0,1,7
7380,-9.62,0.54,-7.66,0,0,1,7
7400,-9.73,-0.54,-6.7,0,0,1,7
7420,-9.33,-1.38,-2.99,0,0,1,7
7440,-7.35,-0.64,0.3,0,0,1,7
7460,-7.32,-0.69,-1.4,0,0,1,7
7480,-8.73,-1.61,-3.15,0,0,1,7
7500,-10.65,-0.19,-1.72,0,0,1,7
7520,-8.78,0.84,-0.9,0,0,1,7
7540,-10.45,-0.29,-2.96,0,0,1,7
7560,-9.74,-0.89,-2.36,0,0,1,7
7580,-10.21,-4.1,-2.82,0,0,1,7
7600,-9.22,-3.23,-2.62,0,0,1,7
7620,-9.19,-3.02,-3.02,0,0,1,7
7640,-9.44,-1.61,-3.62,0,0,1,7
7660,-9.13,-0.81,-4.08,0,0,1,7
7680,-8.79,-0.25,-3.94,0,0,1,7
7700,-10.25,-1.04,-4.19,0,0,1,7
7720,-10.18,-1.36,-4.09,0,0,1,7
7740,-9.15,-1.44,-4.33,0,0,1,7
7760,-9.52,-1.62,-5.18,0,0,1,7
7780,-8.99,-1.64,-5.83,0,0,1,7
7800,-9.9,-1.78,-7.36,0,0,1,7
7820,-8.84,-1.26,-8.37,0,0,1,7
7840,-7.19,0.14,-6.54,0,0,1,7
7860,-4.97,1.02,-4.08,0,0,1,7
7880,-5.59,1.32,-3.92,0,0,1,7
7900,-7.72,0.76,-5.97,0,0,1,7
7920,-8.89,-0.77,-7.31,0,0,1,7
7940,-9.55,-2.14,-7.76,0,0,1,7
7960,-9.0,-2.55,-7.71,0,0,1,7
7980,-9.16,-0.22,-6.78,0,0,1,7
7000,-7.69,1.91,-5.25,0,0,1,8
7020,-8.31,2.55,-6.21,0,0,1,8
7040,-7.78,2.05,-6.26,0,0,1,8
7060,-7.29,1.33,-6.26,0,0,1,8
7080,-6.88,0.46,-6.15,0,0,1,8
7100,-6.92,0.46,-6.51,0,0,1,8
7120,-7.07,0.78,-7.2,0,0,1,8
7140,-7.03,1.08,-7.22,0,0,1,8
7160,-6.95,0.77,-7.0,0,0,1,8
7180,-7.43,0.94,-6.95,0,0,1,8
7200,-8.01,1.35,-6.91,0,0,1,8
7220,-8.17,1.82,-6.58,0,0,1,8
7240,-7.17,1.83,-6.45,0,0,1,8
7260,-7.78,1.77,-5.69,0,0,1,8
7280,-7.76,-0.14,-5.46,0,0,1,8
7300,-8.79,-0.67,-3.99,0,0,1,8
7320,-9.69,-2.1,-5.36,0,0,1,8
7340,-8.92,-1.08,-6.23,0,0,1,8
7360,-9.37,-0.41,-7.5,0,0,1,8
7380,-9.62,0.54,-7.66,0,0,1,8
7400,-9.73,-0.54,-6.7,0,0,1,8
7420,-9.33,-1.38,-2.99,0,0,1,8
7440,-7.35,-0.64,0.3,0,0,1,8
7460,-7.32,-0.69,-1.4,0,0,1,8
7480,-8.73,-1.61,-3.15,0,0,1,8
7500,-10.65,-0.19,-1.72,0,0,1,8
7520,-8.78,0.84,-0.9,0,0,1,8
7540,-10.45,-0.29,-2.96,0,0,1,8
7560,-9.74,-0.89,-2.36,0,0,1,8
7580,-10.21,-4.1,-2.82,0,0,1,8
7600,-9.22,-3.23,-2.62,0,0,1,8
7620,-9.19,-3.02,-3.02,0,0,1,8
7640,-9.44,-1.61,-3.62,0,0,1,8
7660,-9.13,-0.81,-4.08,0,0,1,8
7680,-8.79,-0.25,-3.94,0,0,1,8
7700,-10.25,-1.04,-4.19,0,0,1,8
7720,-10.18,-1.36,-4.09,0,0,1,8
7740,-9.15,-1.44,-4.33,0,0,1,8
7760,-9.52,-1.62,-5.18,0,0,1,8
7780,-8.99,-1.64,-5.83,0,0,1,8
7800,-9.9,-1.78,-7.36,0,0,1,8
7820,-8.84,-1.26,-8.37,0,0,1,8
7840,-7.19,0.14,-6.54,0,0,1,8
7860,-4.97,1.02,-4.08,0,0,1,8
7880,-5.59,1.32,-3.92,0,0,1,8
7900,-7.72,0.76,-5.97,0,0,1,8
7920,-8.89,-0.77,-7.31,0,0,1,8
7940,-9.55,-2.14,-7.76,0,0,1,8
7960,-9.0,-2.55,-7.71,0,0,1,8
7980,-9.16,-0.22,-6.78,0,0,1,8
8000,-10.41,4.92,-4.4,0,0,1,8
8020,-9.92,7.99,-4.08,0,0,1,8
8040,-6.7,6.01,-5.85,0,0,1,8
8060,-5.89,2.65,-4.66,0,0,1,8
8080,-4.43,2.47,-1.3,0,0,1,8
8100,-6.92,4.26,-2.93,0,0,1,8
8120,-9.69,5.38,-4.3,0,0,1,8
8140,-8.9,4.91,-3.34,0,0,1,8
8160,-8.09,4.46,-1.72,0,0,1,8
8180,-7.14,4.97,-2.13,0,0,1,8
8200,-7.97,5.73,-3.02,0,0,1,8
8220,-8.58,5.3,-3.23,0,0,1,8
8240,-7.76,4.14,-1.78,0,0,1,8
8260,-7.71,2.44,-0.22,0,0,1,8
8280,-8.66,1.13,0.04,0,0,1,8
8300,-9.55,0.82,-1.68,0,0,1,8
8320,-9.45,1.17,-2.97,0,0,1,8
8340,-8.91,2.28,-2.62,0,0,1,8
8360,-9.13,2.65,-1.09,0,0,1,8
8380,-9.12,1.81,-0.23,0,0,1,8
8400,-8.55,1.16,-1.99,0,0,1,8
8420,-9.59,1.1,-3.42,0,0,1,8
8440,-8.4,0.75,-4.77,0,0,1,8
8460,-9.09,-0.18,-4.38,0,0,1,8
8480,-9.46,0.25,-6.03,0,0,1,8
8500,-8.47,0.75,-6.04,0,0,1,8
8520,-7.99,2.23,-5.05,0,0,1,8
8540,-9.1,2.9,-7.36,0,0,1,8
8560,-10.42,2.63,-8.62,0,0,1,8
8580,-8.93,0.95,-6.33,0,0,1,8
8600,-7.11,0.29,-4.23,0,0,1,8
8620,-5.95,1.38,-3.42,0,0,1,8
8640,-6.75,2.7,-4.44,0,0,1,8
8660,-8.17,2.97,-6.63,0,0,1,8
8680,-8.99,3.36,-8.34,0,0,1,8
8700,-9.04,2.94,-7.83,0,0,1,8
8720,-8.36,1.52,-6.54,0,0,1,8
8740,-7.7,0.78,-5.72,0,0,1,8
8760,-7.5,1.31,-5.61,0,0,1,8
8780,-7.9,2.34,-5.69,0,0,1,8
8800,-8.19,2.92,-5.83,0,0,1,8
8820,-7.66,3.14,-5.55,0,0,1,8
8840,-7.3,3.01,-5.62,0,0,1,8
8860,-7.35,2.92,-5.46,0,0,1,8
8880,-7.25,2.96,-5.42,0,0,1,8
8900,-7.53,3.25,-5.45,0,0,1,8
8920,-7.27,3.83,-6.0,0,0,1,8
8940,-7.51,4.54,-5.72,0,0,1,8
8960,-7.24,5.42,-5.07,0,0,1,8
8980,-7.35,5.77,-4.85,0,0,1,8
8000,-10.41,4.92,-4.4,0,0,1,9
8020,-9.92,7.99,-4.08,0,0,1,9
8040,-6.7,6.01,-5.85,0,0,1,9
8060,-5.89,2.65,-4.66,0,0,1,9
8080,-4.43,2.47,-1.3,0,0,1,9
8100,-6.92,4.26,-2.93,0,0,1,9
8120,-9.69,5.38,-4.3,0,0,1,9
8140,-8.9,4.91,-3.34,0,0,1,9
8160,-8.09,4.46,-1.72,0,0,1,9
8180,-7.14,4.97,-2.13,0,0,1,9
8200,-7.97,5.73,-3.02,0,0,1,9
8220,-8.58,5.3,-3.23,0,0,1,9
8240,-7.76,4.14,-1.78,0,0,1,9
8260,-7.71,2.44,-0.22,0,0,1,9
8280,-8.66,1.13,0.04,0,0,1,9
8300,-9.55,0.82,-1.68,0,0,1,9
8320,-9.45,1.17,-2.97,0,0,1,9
8340,-8.91,2.28,-2.62,0,0,1,9
8360,-9.13,2.65,-1.09,0,0,1,9
8380,-9.12,1.81,-0.23,0,0,1,9
8400,-8.55,1.16,-1.99,0,0,1,9
8420,-9.59,1.1,-3.42,0,0,1,9
8440,-8.4,0.75,-4.77,0,0,1,9
8460,-9.09,-0.18,-4.38,0,0,1,9
8480,-9.46,0.25,-6.03,0,0,1,9
8500,-8.47,0.75,-6.04,0,0,1,9
8520,-7.99,2.23,-5.05,0,0,1,9
8540,-9.1,2.9,-7.36,0,0,1,9
8560,-10.42,2.63,-8.62,0,0,1,9
8580,-8.93,0.95,-6.33,0,0,1,9
8600,-7.11,0.29,-4.23,0,0,1,9
8620,-5.95,1.38,-3.42,0,0,1,9
8640,-6.75,2.7,-4.44,0,0,1,9
8660,-8.17,2.97,-6.63,0,0,1,9
8680,-8.99,3.36,-8.34,0,0,1,9
8700,-9.04,2.94,-7.83,0,0,1,9
8720,-8.36,1.52,-6.54,0,0,1,9
8740,-7.7,0.78,-5.72,0,0,1,9
8760,-7.5,1.31,-5.61,0,0,1,9
8780,-7.9,2.34,-5.69,0,0,1,9
8800,-8.19,2.92,-5.83,0,0,1,9
8820,-7.66,3.14,-5.55,0,0,1,9
8840,-7.3,3.01,-5.62,0,0,1,9
8860,-7.35,2.92,-5.46,0,0,1,9
8880,-7.25,2.96,-5.42,0,0,1,9
8900,-7.53,3.25,-5.45,0,0,1,9
8920,-7.27,3.83,-6.0,0,0,1,9
8940,-7.51,4.54,-5.72,0,0,1,9
8960,-7.24,5.42,-5.07,0,0,1,9
8980,-7.35,5.77,-4.85,0,0,1,9
9000,-7.65,5.31,-4.77,0,0,1,9
9020,-7.62,4.73,-4.52,0,0,1,9
9040,-7.4,4.44,-4.09,0,0,1,9
9060,-7.31,4.36,-4.24,0,0,1,9
9080,-7.64,4.42,-4.21,0,0,1,9
9100,-7.9,4.66,-4.2,0,0,1,9
9120,-7.97,4.68,-4.24,0,0,1,9
9140,-9.32,3.24,-4.28,0,0,1,9
9160,-10.08,2.34,-1.0,0,0,1,9
9180,-9.05,2.86,-0.77,0,0,1,9
9200,-9.83,0.75,-4.42,0,0,1,9
9220,-11.09,-2.32,-9.55,0,0,1,9
9240,-10.28,-3.67,-8.8,0,0,1,9
9260,-7.93,-1.97,-6.02,0,0,1,9
9280,-6.79,0.84,-3.21,0,0,1,9
9300,-6.5,2.02,-2.67,0,0,1,9
9320,-6.94,1.31,-3.31,0,0,1,9
9340,-7.71,0.95,-4.0,0,0,1,9
9360,-8.87,1.88,-4.83,0,0,1,9
9380,-9.55,3.54,-4.65,0,0,1,9
9400,-9.71,4.63,-4.35,0,0,1,9
9420,-10.04,4.98,-4.16,0,0,1,9
9440,-10.05,4.99,-4.2,0,0,1,9
9460,-9.42,4.53,-3.78,0,0,1,9
9480,-8.15,3.85,-3.25,0,0,1,9
9500,-7.29,3.57,-2.66,0,0,1,9
9520,-6.85,3.83,-2.32,0,0,1,9
9540,-6.57,4.25,-2.23,0,0,1,9
9560,-6.57,4.06,-2.02,0,0,1,9
9580,-6.61,3.27,-2.01,0,0,1,9
9600,-6.92,2.46,-2.29,0,0,1,9
9620,-7.03,2.44,-2.97,0,0,1,9
9640,-7.49,2.81,-3.8,0,0,1,9
9660,-7.92,3.62,-3.66,0,0,1,9
9680,-8.53,5.43,-3.39,0,0,1,9
9700,-12.87,5.58,-3.99,0,0,1,9
9720,-13.15,6.41,-8.49,0,0,1,9
9740,-13.08,4.63,-6.83,0,0,1,9
9760,-8.53,3.91,-2.49,0,0,1,9
9780,-6.78,3.02,0.19,0,0,1,9
9800,-7.96,2.84,-0.9,0,0,1,9
9820,-9.06,1.16,-4.61,0,0,1,9
9840,-9.11,-0.25,-7.08,0,0,1,9
9860,-7.32,-1.18,-5.48,0,0,1,9
9880,-7.15,-0.61,-5.47,0,0,1,9
9900,-7.45,0.37,-5.13,0,0,1,9
9920,-7.65,0.01,-4.5,0,0,1,9
9940,-7.73,-0.79,-4.36,0,0,1,9
9960,-8.2,-0.55,-4.37,0,0,1,9
9980,-8.56,1.41,-4.86,0,0,1,9
9000,-7.65,5.31,-4.77,0,0,1,10
9020,-7.62,4.73,-4.52,0,0,1,10
9040,-7.4,4.44,-4.09,0,0,1,10
9060,-7.31,4.36,-4.24,0,0,1,10
9080,-7.64,4.42,-4.21,0,0,1,10
9100,-7.9,4.66,-4.2,0,0,1,10
9120,-7.97,4.68,-4.24,0,0,1,10
9140,-9.32,3.24,-4.28,0,0,1,10
9160,-10.08,2.34,-1.0,0,0,1,10
9180,-9.05,2.86,-0.77,0,0,1,10
9200,-9.83,0.75,-4.42,0,0,1,10
9220,-11.09,-2.32,-9.55,0,0,1,10
9240,-10.28,-3.67,-8.8,0,0,1,10
9260,-7.93,-1.97,-6.02,0,0,1,10
9280,-6.79,0.84,-3.21,0,0,1,10
9300,-6.5,2.02,-2.67,0,0,1,10
9320,-6.94,1.31,-3.31,0,0,1,10
9340,-7.71,0.95,-4.0,0,0,1,10
9360,-8.87,1.88,-4.83,0,0,1,10
9380,-9.55,3.54,-4.65,0,0,1,10
9400,-9.71,4.63,-4.35,0,0,1,10
9420,-10.04,4.98,-4.16,0,0,1,10
9440,-10.05,4.99,-4.2,0,0,1,10
9460,-9.42,4.53,-3.78,0,0,1,10
9480,-8.15,3.85,-3.25,0,0,1,10
9500,-7.29,3.57,-2.66,0,0,1,10
9520,-6.85,3.83,-2.32,0,0,1,10
9540,-6.57,4.25,-2.23,0,0,1,10
9560,-6.57,4.06,-2.02,0,0,1,10
9580,-6.61,3.27,-2.01,0,0,1,10
9600,-6.92,2.46,-2.29,0,0,1,10
9620,-7.03,2.44,-2.97,0,0,1,10
9640,-7.49,2.81,-3.8,0,0,1,10
9660,-7.92,3.62,-3.66,0,0,1,10
9680,-8.53,5.43,-3.39,0,0,1,10
9700,-12.87,5.58,-3.99,0,0,1,10
9720,-13.15,6.41,-8.49,0,0,1,10
9740,-13.08,4.63,-6.83,0,0,1,10
9760,-8.53,3.91,-2.49,0,0,1,10
9780,-6.78,3.02,0.19,0,0,1,10
9800,-7.96,2.84,-0.9,0,0,1,10
9820,-9.06,1.16,-4.61,0,0,1,10
9840,-9.11,-0.25,-7.08,0,0,1,10
9860,-7.32,-1.18,-5.48,0,0,1,10
9880,-7.15,-0.61,-5.47,0,0,1,10
9900,-7.45,0.37,-5.13,0,0,1,10
9920,-7.65,0.01,-4.5,0,0,1,10
9940,-7.73,-0.79,-4.36,0,0,1,10
9960,-8.2,-0.55,-4.37,0,0,1,10
9980,-8.56,1.41,-4.86,0,0,1,10
10000,-8.86,3.48,-5.84,0,0,1,10
10020,-9.22,4.46,-6.67,0,0,1,10
10040,-8.85,4.08,-6.29,0,0,1,10
10060,-8.07,2.79,-5.29,0,0,1,10
10080,-7.4,1.61,-4.28,0,0,1,10
10100,-7.14,0.84,-4.38,0,0,1,10
10120,-7.46,0.94,-4.87,0,0,1,10
10140,-7.96,1.33,-5.47,0,0,1,10
10160,-7.74,1.81,-5.62,0,0,1,10
10180,-7.38,1.87,-5.22,0,0,1,10
10200,-6.65,2.26,-4.73,0,0,1,10
10220,-6.09,3.62,-4.4,0,0,1,10
10240,-6.61,5.16,-4.21,0,0,1,10
10260,-7.12,6.15,-4.6,0,0,1,10
10280,-7.75,5.43,-5.59,0,0,1,10
10300,-7.33,4.38,-5.58,0,0,1,10
10320,-9.95,1.68,-5.07,0,0,1,10
10340,-9.33,1.53,-2.58,0,0,1,10
10360,-9.31,3.12,-3.4,0,0,1,10
10380,-13.67,2.2,-7.37,0,0,1,10
10400,-15.11,1.27,-11.43,0,0,1,10
10420,-13.07,0.28,-10.88,0,0,1,10
10440,-9.73,-0.31,-8.0,0,0,1,10
10460,-6.91,-0.3,-4.47,0,0,1,10
10480,-4.86,-0.82,-0.02,0,0,1,10
10500,-3.15,-1.42,2.08,0,0,1,10
10520,-5.09,-0.7,0.83,0,0,1,10
10540,-8.15,1.28,-2.35,0,0,1,10
10560,-10.74,3.89,-5.09,0,0,1,10
10580,-11.84,4.91,-6.5,0,0,1,10
10600,-11.35,3.81,-6.76,0,0,1,10
10620,-9.23,3.54,-4.84,0,0,1,10
10640,-7.28,2.44,-2.12,0,0,1,10
10660,-6.36,1.7,-1.06,0,0,1,10
10680,-6.58,1.84,-1.7,0,0,1,10
10700,-7.77,1.96,-2.97,0,0,1,10
10720,-7.85,1.94,-3.73,0,0,1,10
10740,-7.42,1.61,-3.3,0,0,1,10
10760,-7.02,1.5,-2.19,0,0,1,10
10780,-7.97,1.29,-2.42,0,0,1,10
10800,-8.69,1.35,-3.79,0,0,1,10
10820,-9.35,1.47,-4.93,0,0,1,10
10840,-9.29,2.32,-5.02,0,0,1,10
10860,-8.55,3.32,-4.38,0,0,1,10
10880,-8.06,4.08,-3.35,0,0,1,10
10900,-6.79,4.65,-3.2,0,0,1,10
10920,-6.9,5.49,-3.2,0,0,1,10
10940,-7.68,6.62,-4.15,0,0,1,10
10960,-7.84,7.11,-4.51,0,0,1,10
10980,-7.58,6.98,-3.68,0,0,1,10
10000,-8.86,3.48,-5.84,0,0,1,11
10020,-9.22,4.46,-6.67,0,0,1,11
10040,-8.85,4.08,-6.29,0,0,1,11
10060,-8.07,2.79,-5.29,0,0,1,11
10080,-7.4,1.61,-4.28,0,0,1,11
10100,-7.14,0.84,-4.38,0,0,1,11
10120,-7.46,0.94,-4.87,0,0,1,11
10140,-7.96,1.33,-5.47,0,0,1,11
10160,-7.74,1.81,-5.62,0,0,1,11
10180,-7.38,1.87,-5.22,0,0,1,11
10200,-6.65,2.26,-4.73,0,0,1,11
10220,-6.09,3.62,-4.4,0,0,1,11
10240,-6.61,5.16,-4.21,0,0,1,11
10260,-7.12,6.15,-4.6,0,0,1,11
10280,-7.75,5.43,-5.59,0,0,1,11
10300,-7.33,4.38,-5.58,0,0,1,11
10320,-9.95,1.68,-5.07,0,0,1,11
10340,-9.33,1.53,-2.58,0,0,1,11
10360,-9.31,3.12,-3.4,0,0,1,11
10380,-13.67,2.2,-7.37,0,0,1,11
10400,-15.11,1.27,-11.43,0,0,1,11
10420,-13.07,0.28,-10.88,0,0,1,11
10440,-9.73,-0.31,-8.0,0,0,1,11
10460,-6.91,-0.3,-4.47,0,0,1,11
10480,-4.86,-0.82,-0.02,0,0,1,11
10500,-3.15,-1.42,2.08,0,0,1,11
10520,-5.09,-0.7,0.83,0,0,1,11
10540,-8.15,1.28,-2.35,0,0,1,11
10560,-10.74,3.89,-5.09,0,0,1,11
10580,-11.84,4.91,-6.5,0,0,1,11
10600,-11.35,3.81,-6.76,0,0,1,11
10620,-9.23,3.54,-4.84,0,0,1,11
10640,-7.28,2.44,-2.12,0,0,1,11
10660,-6.36,1.7,-1.06,0,0,1,11
10680,-6.58,1.84,-1.7,0,0,1,11
10700,-7.77,1.96,-2.97,0,0,1,11
10720,-7.85,1.94,-3.73,0,0,1,11
10740,-7.42,1.61,-3.3,0,0,1,11
10760,-7.02,1.5,-2.19,0,0,1,11
10780,-7.97,1.29,-2.42,0,0,1,11
10800,-8.69,1.35,-3.79,0,0,1,11
10820,-9.35,1.47,-4.93,0,0,1,11
10840,-9.29,2.32,-5.02,0,0,1,11
10860,-8.55,3.32,-4.38,0,0,1,11
10880,-8.06,4.08,-3.35,0,0,1,11
10900,-6.79,4.65,-3.2,0,0,1,11
10920,-6.9,5.49,-3.2,0,0,1,11
10940,-7.68,6.62,-4.15,0,0,1,11
10960,-7.84,7.11,-4.51,0,0,1,11
10980,-7.58,6.98,-3.68,0,0,1,11
11000,-6.66,5.99,-2.65,0,0,1,11
11020,-13.29,1.48,-1.75,0,0,1,11
11040,-13.46,0.74,-8.45,0,0,1,11
11060,-17.64,-3.97,-12.34,0,0,1,11
11080,-10.1,-3.61,-7.77,0,0,1,11
11100,-5.7,1.46,-0.63,0,0,1,11
11120,-6.16,6.6,0.23,0,0,1,11
11140,-7.2,7.55,-2.08,0,0,1,11
11160,-8.13,2.31,-5.06,0,0,1,11
11180,-8.69,-3.59,-7.19,0,0,1,11
11200,-9.51,-6.59,-7.54,0,0,1,11
11220,-7.66,-3.11,-4.9,0,0,1,11
11240,-6.23,1.4,-1.84,0,0,1,11
11260,-6.9,4.45,-1.94,0,0,1,11
11280,-8.18,5.12,-3.94,0,0,1,11
11300,-9.3,3.09,-7.02,0,0,1,11
11320,-9.62,1.25,-8.63,0,0,1,11
11340,-8.77,0.12,-7.23,0,0,1,11
11360,-7.23,0.32,-4.55,0,0,1,11
11380,-6.52,1.7,-3.1,0,0,1,11
11400,-6.25,2.75,-3.3,0,0,1,11
11420,-7.06,3.11,-4.3,0,0,1,11
11440,-7.67,3.16,-5.08,0,0,1,11
11460,-7.2,3.34,-5.18,0,0,1,11
11480,-6.96,3.5,-5.12,0,0,1,11
11500,-8.28,2.77,-4.81,0,0,1,11
11520,-9.46,1.61,-4.78,0,0,1,11
11540,-8.33,0.96,-4.95,0,0,1,11
11560,-8.03,1.19,-5.02,0,0,1,11
11580,-7.63,1.73,-4.9,0,0,1,11
11600,-7.87,1.86,-5.36,0,0,1,11
11620,-8.34,2.55,-3.48,0,0,1,11
11640,-9.53,5.81,-5.29,0,0,1,11
11660,-12.73,7.93,-7.18,0,0,1,11
11680,-13.22,5.32,-9.62,0,0,1,11
11700,-11.23,1.19,-10.5,0,0,1,11
11720,-10.09,-2.0,-9.87,0,0,1,11
11740,-7.43,-3.27,-4.14,0,0,1,11
11760,-3.69,-3.0,1.8,0,0,1,11
11780,-3.07,-1.49,2.99,0,0,1,11
11800,-4.76,-0.66,0.16,0,0,1,11
11820,-7.37,0.14,-4.1,0,0,1,11
11840,-10.17,2.31,-7.06,0,0,1,11
11860,-12.35,5.2,-8.43,0,0,1,11
11880,-12.35,5.9,-7.71,0,0,1,11
11900,-10.3,5.3,-4.78,0,0,1,11
11920,-7.77,4.62,-1.76,0,0,1,11
11940,-7.1,4.08,-1.56,0,0,1,11
11960,-7.3,3.86,-2.61,0,0,1,11
11980,-7.76,3.13,-4.15,0,0,1,11
11000,-6.66,5.99,-2.65,0,0,1,12
11020,-13.29,1.48,-1.75,0,0,1,12
11040,-13.46,0.74,-8.45,0,0,1,12
11060,-17.64,-3.97,-12.34,0,0,1,12
11080,-10.1,-3.61,-7.77,0,0,1,12
11100,-5.7,1.46,-0.63,0,0,1,12
11120,-6.16,6.6,0.23,0,0,1,12
11140,-7.2,7.55,-2.08,0,0,1,12
11160,-8.13,2.31,-5.06,0,0,1,12
11180,-8.69,-3.59,-7.19,0,0,1,12
11200,-9.51,-6.59,-7.54,0,0,1,12
11220,-7.66,-3.11,-4.9,0,0,1,12
11240,-6.23,1.4,-1.84,0,0,1,12
11260,-6.9,4.45,-1.94,0,0,1,12
11280,-8.18,5.12,-3.94,0,0,1,12
11300,-9.3,3.09,-7.02,0,0,1,12
11320,-9.62,1.25,-8.63,0,0,1,12
11340,-8.77,0.12,-7.23,0,0,1,12
11360,-7.23,0.32,-4.55,0,0,1,12
11380,-6.52,1.7,-3.1,0,0,1,12
11400,-6.25,2.75,-3.3,0,0,1,12
11420,-7.06,3.11,-4.3,0,0,1,12
11440,-7.67,3.16,-5.08,0,0,1,12
11460,-7.2,3.34,-5.18,0,0,1,12
11480,-6.96,3.5,-5.12,0,0,1,12
11500,-8.28,2.77,-4.81,0,0,1,12
11520,-9.46,1.61,-4.78,0,0,1,12
11540,-8.33,0.96,-4.95,0,0,1,12
11560,-8.03,1.19,-5.02,0,0,1,12
11580,-7.63,1.73,-4.9,0,0,1,12
11600,-7.87,1.86,-5.36,0,0,1,12
11620,-8.34,2.55,-3.48,0,0,1,12
11640,-9.53,5.81,-5.29,0,0,1,12
11660,-12.73,7.93,-7.18,0,0,1,12
11680,-13.22,5.32,-9.62,0,0,1,12
11700,-11.23,1.19,-10.5,0,0,1,12
11720,-10.09,-2.0,-9.87,0,0,1,12
11740,-7.43,-3.27,-4.14,0,0,1,12
11760,-3.69,-3.0,1.8,0,0,1,12
11780,-3.07,-1.49,2.99,0,0,1,12
11800,-4.76,-0.66,0.16,0,0,1,12
11820,-7.37,0.14,-4.1,0,0,1,12
11840,-10.17,2.31,-7.06,0,0,1,12
11860,-12.35,5.2,-8.43,0,0,1,12
11880,-12.35,5.9,-7.71,0,0,1,12
11900,-10.3,5.3,-4.78,0,0,1,12
11920,-7.77,4.62,-1.76,0,0,1,12
11940,-7.1,4.08,-1.56,0,0,1,12
11960,-7.3,3.86,-2.61,0,0,1,12
11980,-7.76,3.13,-4.15,0,0,1,12
12000,-7.94,2.54,-4.5,0,0,1,12
12020,-7.4,2.26,-3.9,0,0,1,12
12040,-7.09,2.1,-3.3,0,0,1,12
12060,-6.69,1.43,-3.49,0,0,1,12
12080,-7.18,0.43,-4.19,0,0,1,12
12100,-7.27,0.14,-4.69,0,0,1,12
12120,-7.16,0.68,-4.79,0,0,1,12
12140,-7.39,2.37,-4.21,0,0,1,12
12160,-7.87,4.52,-4.2,0,0,1,12
12180,-8.72,5.75,-4.61,0,0,1,12
12200,-9.3,6.06,-5.46,0,0,1,12
12220,-8.89,5.72,-5.35,0,0,1,12
12240,-7.89,5.71,-4.59,0,0,1,12
12260,-7.13,6.0,-3.66,0,0,1,12
12280,-9.84,4.77,-3.34,0,0,1,12
12300,-10.32,4.36,-7.29,0,0,1,12
12320,-11.81,0.5,-8.61,0,0,1,12
12340,-12.52,-2.43,-8.19,0,0,1,12
12360,-9.23,-2.62,-5.59,0,0,1,12
12380,-7.56,-0.14,-2.52,0,0,1,12
12400,-7.38,2.28,-1.45,0,0,1,12
12420,-7.02,1.93,-2.6,0,0,1,12
12440,-7.49,-0.23,-4.43,0,0,1,12
12460,-7.98,-2.42,-6.29,0,0,1,12
12480,-8.35,-2.2,-6.94,0,0,1,12
12500,-8.21,0.51,-5.7,0,0,1,12
12520,-7.26,3.69,-3.78,0,0,1,12
12540,-7.33,5.03,-3.21,0,0,1,12
12560,-7.71,4.42,-4.48,0,0,1,12
12580,-8.22,3.03,-6.3,0,0,1,12
12600,-8.37,1.73,-6.38,0,0,1,12
12620,-7.82,1.42,-5.01,0,0,1,12
12640,-7.47,1.73,-3.9,0,0,1,12
12660,-7.45,1.95,-4.17,0,0,1,12
12680,-7.77,1.87,-5.09,0,0,1,12
12700,-8.06,1.51,-5.97,0,0,1,12
12720,-8.22,1.02,-6.08,0,0,1,12
12740,-7.98,0.9,-5.57,0,0,1,12
12760,-7.68,1.22,-5.2,0,0,1,12
12780,-8.11,1.43,-5.68,0,0,1,12
12800,-8.03,1.64,-6.31,0,0,1,12
12820,-7.79,1.98,-6.14,0,0,1,12
12840,-7.56,2.21,-5.4,0,0,1,12
12860,-7.41,2.26,-4.93,0,0,1,12
12880,-7.04,2.24,-4.92,0,0,1,12
12900,-7.24,2.44,-5.28,0,0,1,12
12920,-7.54,2.67,-5.72,0,0,1,12
12940,-7.59,2.8,-5.87,0,0,1,12
12960,-7.28,3.02,-6.0,0,0,1,12
12980,-7.59,2.67,-6.62,0,0,1,12
12000,-7.94,2.54,-4.5,0,0,1,13
12020,-7.4,2.26,-3.9,0,0,1,13
12040,-7.09,2.1,-3.3,0,0,1,13
12060,-6.69,1.43,-3.49,0,0,1,13
12080,-7.18,0.43,-4.19,0,0,1,13
12100,-7.27,0.14,-4.69,0,0,1,13
12120,-7.16,0.68,-4.79,0,0,1,13
12140,-7.39,2.37,-4.21,0,0,1,13
12160,-7.87,4.52,-4.2,0,0,1,13
12180,-8.72,5.75,-4.61,0,0,1,13
12200,-9.3,6.06,-5.46,0,0,1,13
12220,-8.89,5.72,-5.35,0,0,1,13
12240,-7.89,5.71,-4.59,0,0,1,13
12260,-7.13,6.0,-3.66,0,0,1,13
12280,-9.84,4.77,-3.34,0,0,1,13
12300,-10.32,4.36,-7.29,0,0,1,13
12320,-11.81,0.5,-8.61,0,0,1,13
12340,-12.52,-2.43,-8.19,0,0,1,13
12360,-9.23,-2.62,-5.59,0,0,1,13
12380,-7.56,-0.14,-2.52,0,0,1,13
12400,-7.38,2.28,-1.45,0,0,1,13
12420,-7.02,1.93,-2.6,0,0,1,13
12440,-7.49,-0.23,-4.43,0,0,1,13
12460,-7.98,-2.42,-6.29,0,0,1,13
12480,-8.35,-2.2,-6.94,0,0,1,13
12500,-8.21,0.51,-5.7,0,0,1,13
12520,-7.26,3.69,-3.78,0,0,1,13
12540,-7.33,5.03,-3.21,0,0,1,13
12560,-7.71,4.42,-4.48,0,0,1,13
12580,-8.22,3.03,-6.3,0,0,1,13
12600,-8.37,1.73,-6.38,0,0,1,13
12620,-7.82,1.42,-5.01,0,0,1,13
12640,-7.47,1.73,-3.9,0,0,1,13
12660,-7.45,1.95,-4.17,0,0,1,13
12680,-7.77,1.87,-5.09,0,0,1,13
12700,-8.06,1.51,-5.97,0,0,1,13
12720,-8.22,1.02,-6.08,0,0,1,13
12740,-7.98,0.9,-5.57,0,0,1,13
12760,-7.68,1.22,-5.2,0,0,1,13
12780,-8.11,1.43,-5.68,0,0,1,13
12800,-8.03,1.64,-6.31,0,0,1,13
12820,-7.79,1.98,-6.14,0,0,1,13
12840,-7.56,2.21,-5.4,0,0,1,13
12860,-7.41,2.26,-4.93,0,0,1,13
12880,-7.04,2.24,-4.92,0,0,1,13
12900,-7.24,2.44,-5.28,0,0,1,13
12920,-7.54,2.67,-5.72,0,0,1,13
12940,-7.59,2.8,-5.87,0,0,1,13
12960,-7.28,3.02,-6.0,0,0,1,13
12980,-7.59,2.67,-6.62,0,0,1,13
13000,-7.91,2.36,-7.07,0,0,1,13
13020,-7.68,2.21,-6.92,0,0,1,13
13040,-6.99,2.52,-6.09,0,0,1,13
13060,-6.53,2.58,-6.33,0,0,1,13
13080,-6.41,2.16,-6.62,0,0,1,13
13100,-9.41,0.76,-5.23,0,0,1,13
13120,-8.11,2.57,-2.13,0,0,1,13
13140,-7.85,4.88,-0.92,0,0,1,13
13160,-9.29,1.12,-4.12,0,0,1,13
13180,-13.14,-2.59,-7.57,0,0,1,13
13200,-13.93,-4.45,-8.83,0,0,1,13
13220,-12.52,-5.05,-9.0,0,0,1,13
13240,-9.73,-1.66,-5.85,0,0,1,13
13260,-7.48,2.27,-1.68,0,0,1,13
13280,-8.51,3.82,0.3,0,0,1,13
13300,-10.36,3.49,-1.38,0,0,1,13
13320,-11.54,2.98,-5.13,0,0,1,13
13340,-11.28,1.83,-6.85,0,0,1,13
13360,-9.36,0.74,-4.14,0,0,1,13
13380,-7.07,0.6,-0.71,0,0,1,13
13400,-6.26,1.84,-0.28,0,0,1,13
13420,-7.35,2.77,-2.65,0,0,1,13
13440,-7.83,2.64,-3.98,0,0,1,13
13460,-7.57,1.76,-3.06,0,0,1,13
13480,-7.53,0.92,-2.45,0,0,1,13
13500,-7.69,0.79,-2.38,0,0,1,13
13520,-8.16,1.44,-2.55,0,0,1,13
13540,-8.32,2.91,-3.21,0,0,1,13
13560,-7.4,3.52,-3.19,0,0,1,13
13580,-7.48,3.73,-2.94,0,0,1,13
13600,-6.92,3.05,-3.22,0,0,1,13
13620,-6.11,2.02,-2.55,0,0,1,13
13640,-7.47,1.91,-2.45,0,0,1,13
13660,-10.72,3.15,-5.46,0,0,1,13
13680,-13.03,4.65,-7.87,0,0,1,13
13700,-13.01,5.61,-7.96,0,0,1,13
13720,-11.41,2.3,-5.33,0,0,1,13
13740,-9.23,-0.93,-3.89,0,0,1,13
13760,-7.56,-1.23,-3.67,0,0,1,13
13780,-6.84,-1.37,-3.3,0,0,1,13
13800,-6.87,-1.28,-3.27,0,0,1,13
13820,-6.72,0.08,-4.06,0,0,1,13
13840,-7.33,2.17,-5.08,0,0,1,13
13860,-8.12,2.68,-4.7,0,0,1,13
13880,-8.58,2.05,-4.29,0,0,1,13
13900,-8.52,2.11,-4.65,0,0,1,13
13920,-8.34,2.32,-5.25,0,0,1,13
13940,-7.75,2.18,-5.55,0,0,1,13
13960,-7.66,2.02,-5.82,0,0,1,13
13980,-7.73,1.62,-6.12,0,0,1,13
13000,-7.91,2.36,-7.07,0,0,1,14
13020,-7.68,2.21,-6.92,0,0,1,14
13040,-6.99,2.52,-6.09,0,0,1,14
13060,-6.53,2.58,-6.33,0,0,1,14
13080,-6.41,2.16,-6.62,0,0,1,14
13100,-9.41,0.76,-5.23,0,0,1,14
13120,-8.11,2.57,-2.13,0,0,1,14
13140,-7.85,4.88,-0.92,0,0,1,14
13160,-9.29,1.12,-4.12,0,0,1,14
13180,-13.14,-2.59,-7.57,0,0,1,14
13200,-13.93,-4.45,-8.83,0,0,1,14
13220,-12.52,-5.05,-9.0,0,0,1,14
13240,-9.73,-1.66,-5.85,0,0,1,14
13260,-7.48,2.27,-1.68,0,0,1,14
13280,-8.51,3.82,0.3,0,0,1,14
13300,-10.36,3.49,-1.38,0,0,1,14
13320,-11.54,2.98,-5.13,0,0,1,14
13340,-11.28,1.83,-6.85,0,0,1,14
13360,-9.36,0.74,-4.14,0,0,1,14
13380,-7.07,0.6,-0.71,0,0,1,14
13400,-6.26,1.84,-0.28,0,0,1,14
13420,-7.35,2.77,-2.65,0,0,1,14
13440,-7.83,2.64,-3.98,0,0,1,14
13460,-7.57,1.76,-3.06,0,0,1,14
13480,-7.53,0.92,-2.45,0,0,1,14
13500,-7.69,0.79,-2.38,0,0,1,14
13520,-8.16,1.44,-2.55,0,0,1,14
13540,-8.32,2.91,-3.21,0,0,1,14
13560,-7.4,3.52,-3.19,0,0,1,14
13580,-7.48,3.73,-2.94,0,0,1,14
13600,-6.92,3.05,-3.22,0,0,1,14
13620,-6.11,2.02,-2.55,0,0,1,14
13640,-7.47,1.91,-2.45,0,0,1,14
13660,-10.72,3.15,-5.46,0,0,1,14
13680,-13.03,4.65,-7.87,0,0,1,14
13700,-13.01,5.61,-7.96,0,0,1,14
13720,-11.41,2.3,-5.33,0,0,1,14
13740,-9.23,-0.93,-3.89,0,0,1,14
13760,-7.56,-1.23,-3.67,0,0,1,14
13780,-6.84,-1.37,-3.3,0,0,1,14
13800,-6.87,-1.28,-3.27,0,0,1,14
13820,-6.72,0.08,-4.06,0,0,1,14
13840,-7.33,2.17,-5.08,0,0,1,14
13860,-8.12,2.68,-4.7,0,0,1,14
13880,-8.58,2.05,-4.29,0,0,1,14
13900,-8.52,2.11,-4.65,0,0,1,14
13920,-8.34,2.32,-5.25,0,0,1,14
13940,-7.75,2.18,-5.55,0,0,1,14
13960,-7.66,2.02,-5.82,0,0,1,14
13980,-7.73,1.62,-6.12,0,0,1,14
14000,-7.83,1.6,-5.78,0,0,1,14
14020,-7.88,1.91,-5.25,0,0,1,14
14040,-7.86,2.44,-5.01,0,0,1,14
14060,-8.18,2.64,-5.39,0,0,1,14
14080,-8.26,3.52,-5.56,0,0,1,14
14100,-8.27,4.33,-5.31,0,0,1,14
14120,-7.97,4.27,-5.16,0,0,1,14
14140,-7.82,3.65,-5.42,0,0,1,14
14160,-7.72,3.06,-5.7,0,0,1,14
14180,-7.55,2.68,-5.77,0,0,1,14
14200,-7.57,2.83,-5.53,0,0,1,14
14220,-6.98,3.63,-5.12,0,0,1,14
14240,-6.85,4.2,-5.09,0,0,1,14
14260,-7.19,3.78,-5.68,0,0,1,14
14280,-7.41,3.49,-5.71,0,0,1,14
14300,-6.86,3.68,-5.8,0,0,1,14
14320,-7.16,3.34,-5.81,0,0,1,14
14340,-7.55,2.41,-6.42,0,0,1,14
14360,-10.49,1.31,-5.24,0,0,1,14
14380,-6.85,1.94,-4.61,0,0,1,14
14400,-6.17,2.16,-4.88,0,0,1,14
14420,-8.0,1.66,-6.15,0,0,1,14
14440,-8.33,2.46,-5.39,0,0,1,14
14460,-8.03,3.94,-4.96,0,0,1,14
14480,-9.58,3.87,-6.3,0,0,1,14
14500,-11.0,2.61,-8.08,0,0,1,14
14520,-10.58,2.29,-7.28,0,0,1,14
14540,-9.08,2.3,-4.31,0,0,1,14
14560,-8.66,1.4,-3.16,0,0,1,14
14580,-8.27,-0.58,-2.98,0,0,1,14
14600,-7.14,-1.92,-3.0,0,0,1,14
14620,-7.15,-2.07,-2.69,0,0,1,14
14640,-7.65,-1.6,-3.17,0,0,1,14
14660,-7.98,0.4,-4.2,0,0,1,14
14680,-9.72,3.95,-5.05,0,0,1,14
14700,-11.47,6.52,-5.8,0,0,1,14
14720,-10.74,6.16,-5.56,0,0,1,14
14740,-9.59,4.13,-4.77,0,0,1,14
14760,-8.71,2.39,-4.36,0,0,1,14
14780,-8.34,1.73,-4.56,0,0,1,14
14800,-8.15,2.53,-4.29,0,0,1,14
14820,-7.98,3.26,-3.9,0,0,1,14
14840,-7.1,3.6,-2.99,0,0,1,14
14860,-6.3,3.44,-2.2,0,0,1,14
14880,-5.87,3.1,-1.93,0,0,1,14
14900,-6.08,2.56,-2.26,0,0,1,14
14920,-5.99,2.05,-2.97,0,0,1,14
14940,-6.39,1.31,-3.98,0,0,1,14
14960,-7.15,1.65,-5.0,0,0,1,14
14980,-7.81,3.08,-6.2,0,0,1,14
14000,-7.83,1.6,-5.78,0,0,1,15
14020,-7.88,1.91,-5.25,0,0,1,15
14040,-7.86,2.44,-5.01,0,0,1,15
14060,-8.18,2.64,-5.39,0,0,1,15
14080,-8.26,3.52,-5.56,0,0,1,15
14100,-8.27,4.33,-5.31,0,0,1,15
14120,-7.97,4.27,-5.16,0,0,1,15
14140,-7.82,3.65,-5.42,0,0,1,15
14160,-7.72,3.06,-5.7,0,0,1,15
14180,-7.55,2.68,-5.77,0,0,1,15
14200,-7.57,2.83,-5.53,0,0,1,15
14220,-6.98,3.63,-5.12,0,0,1,15
14240,-6.85,4.2,-5.09,0,0,1,15
14260,-7.19,3.78,-5.68,0,0,1,15
14280,-7.41,3.49,-5.71,0,0,1,15
14300,-6.86,3.68,-5.8,0,0,1,15
14320,-7.16,3.34,-5.81,0,0,1,15
14340,-7.55,2.41,-6.42,0,0,1,15
14360,-10.49,1.31,-5.24,0,0,1,15
14380,-6.85,1.94,-4.61,0,0,1,15
14400,-6.17,2.16,-4.88,0,0,1,15
14420,-8.0,1.66,-6.15,0,0,1,15
14440,-8.33,2.46,-5.39,0,0,1,15
14460,-8.03,3.94,-4.96,0,0,1,15
14480,-9.58,3.87,-6.3,0,0,1,15
14500,-11.0,2.61,-8.08,0,0,1,15
14520,-10.58,2.29,-7.28,0,0,1,15
14540,-9.08,2.3,-4.31,0,0,1,15
14560,-8.66,1.4,-3.16,0,0,1,15
14580,-8.27,-0.58,-2.98,0,0,1,15
14600,-7.14,-1.92,-3.0,0,0,1,15
14620,-7.15,-2.07,-2.69,0,0,1,15
14640,-7.65,-1.6,-3.17,0,0,1,15
14660,-7.98,0.4,-4.2,0,0,1,15
14680,-9.72,3.95,-5.05,0,0,1,15
14700,-11.47,6.52,-5.8,0,0,1,15
14720,-10.74,6.16,-5.56,0,0,1,15
14740,-9.59,4.13,-4.77,0,0,1,15
14760,-8.71,2.39,-4.36,0,0,1,15
14780,-8.34,1.73,-4.56,0,0,1,15
14800,-8.15,2.53,-4.29,0,0,1,15
14820,-7.98,3.26,-3.9,0,0,1,15
14840,-7.1,3.6,-2.99,0,0,1,15
14860,-6.3,3.44,-2.2,0,0,1,15
14880,-5.87,3.1,-1.93,0,0,1,15
14900,-6.08,2.56,-2.26,0,0,1,15
14920,-5.99,2.05,-2.97,0,0,1,15
14940,-6.39,1.31,-3.98,0,0,1,15
14960,-7.15,1.65,-5.0,0,0,1,15
14980,-7.81,3.08,-6.2,0,0,1,15
15000,-9.01,4.82,-7.72,0,0,1,15
15020,-10.68,5.98,-7.99,0,0,1,15
15040,-14.57,4.38,-7.84,0,0,1,15
15060,-12.16,1.67,-8.02,0,0,1,15
15080,-7.9,-2.52,-6.18,0,0,1,15
15100,-4.69,-2.35,-0.31,0,0,1,15
15120,-6.1,-1.22,1.43,0,0,1,15
15140,-10.74,0.11,-2.57,0,0,1,15
15160,-11.37,0.63,-7.05,0,0,1,15
15180,-10.11,-0.06,-7.78,0,0,1,15
15200,-8.34,-0.73,-6.33,0,0,1,15
15220,-6.24,-0.64,-4.86,0,0,1,15
15240,-5.87,-0.7,-5.35,0,0,1,15
15260,-7.7,-0.07,-5.79,0,0,1,15
15280,-8.27,1.13,-5.62,0,0,1,15
15300,-9.04,2.51,-4.87,0,0,1,15
15320,-9.62,2.9,-5.19,0,0,1,15
15340,-9.71,1.9,-6.84,0,0,1,15
15360,-8.97,1.39,-8.19,0,0,1,15
15380,-7.84,1.57,-7.2,0,0,1,15
15400,-7.06,1.84,-5.96,0,0,1,15
15420,-6.23,1.91,-5.27,0,0,1,15
15440,-6.08,1.38,-5.63,0,0,1,15
15460,-7.01,0.5,-7.05,0,0,1,15
15480,-7.08,0.91,-7.52,0,0,1,15
15500,-6.84,1.86,-7.57,0,0,1,15
15520,-6.08,2.77,-7.17,0,0,1,15
15540,-5.71,3.44,-5.94,0,0,1,15
15560,-6.11,4.18,-5.13,0,0,1,15
15580,-9.07,3.59,-5.17,0,0,1,15
15600,-9.33,3.89,-3.99,0,0,1,15
15620,-8.12,4.96,-2.78,0,0,1,15
15640,-8.2,4.24,-3.52,0,0,1,15
15660,-8.72,2.39,-6.42,0,0,1,15
15680,-8.94,0.29,-7.03,0,0,1,15
15700,-8.78,0.39,-5.83,0,0,1,15
15720,-8.31,1.88,-4.18,0,0,1,15
15740,-8.74,2.58,-2.96,0,0,1,15
15760,-7.81,2.84,-3.02,0,0,1,15
15780,-7.13,3.04,-3.75,0,0,1,15
15800,-7.26,4.11,-4.61,0,0,1,15
15820,-7.78,5.08,-5.6,0,0,1,15
15840,-7.7,5.6,-5.33,0,0,1,15
15860,-7.88,5.39,-3.39,0,0,1,15
15880,-7.96,6.01,-2.74,0,0,1,15
15900,-8.48,6.92,-4.18,0,0,1,15
15920,-9.04,6.98,-5.3,0,0,1,15
15940,-9.21,6.65,-5.63,0,0,1,15
15960,-8.49,5.55,-4.85,0,0,1,15
15980,-7.68,4.86,-3.48,0,0,1,15
15000,-9.01,4.82,-7.72,0,0,1,16
15020,-10.68,5.98,-7.99,0,0,1,16
15040,-14.57,4.38,-7.84,0,0,1,16
15060,-12.16,1.67,-8.02,0,0,1,16
15080,-7.9,-2.52,-6.18,0,0,1,16
15100,-4.69,-2.35,-0.31,0,0,1,16
15120,-6.1,-1.22,1.43,0,0,1,16
15140,-10.74,0.11,-2.57,0,0,1,16
15160,-11.37,0.63,-7.05,0,0,1,16
15180,-10.11,-0.06,-7.78,0,0,1,16
15200,-8.34,-0.73,-6.33,0,0,1,16
15220,-6.24,-0.64,-4.86,0,0,1,16
15240,-5.87,-0.7,-5.35,0,0,1,16
15260,-7.7,-0.07,-5.79,0,0,1,16
15280,-8.27,1.13,-5.62,0,0,1,16
15300,-9.04,2.51,-4.87,0,0,1,16
15320,-9.62,2.9,-5.19,0,0,1,16
15340,-9.71,1.9,-6.84,0,0,1,16
15360,-8.97,1.39,-8.19,0,0,1,16
15380,-7.84,1.57,-7.2,0,0,1,16
15400,-7.06,1.84,-5.96,0,0,1,16
15420,-6.23,1.91,-5.27,0,0,1,16
15440,-6.08,1.38,-5.63,0,0,1,16
15460,-7.01,0.5,-7.05,0,0,1,16
15480,-7.08,0.91,-7.52,0,0,1,16
15500,-6.84,1.86,-7.57,0,0,1,16
15520,-6.08,2.77,-7.17,0,0,1,16
15540,-5.71,3.44,-5.94,0,0,1,16
15560,-6.11,4.18,-5.13,0,0,1,16
15580,-9.07,3.59,-5.17,0,0,1,16
15600,-9.33,3.89,-3.99,0,0,1,16
15620,-8.12,4.96,-2.78,0,0,1,16
15640,-8.2,4.24,-3.52,0,0,1,16
15660,-8.72,2.39,-6.42,0,0,1,16
15680,-8.94,0.29,-7.03,0,0,1,16
15700,-8.78,0.39,-5.83,0,0,1,16
15720,-8.31,1.88,-4.18,0,0,1,16
15740,-8.74,2.58,-2.96,0,0,1,16
15760,-7.81,2.84,-3.02,0,0,1,16
15780,-7.13,3.04,-3.75,0,0,1,16
15800,-7.26,4.11,-4.61,0,0,1,16
15820,-7.78,5.08,-5.6,0,0,1,16
15840,-7.7,5.6,-5.33,0,0,1,16
15860,-7.88,5.39,-3.39,0,0,1,16
15880,-7.96,6.01,-2.74,0,0,1,16
15900,-8.48,6.92,-4.18,0,0,1,16
15920,-9.04,6.98,-5.3,0,0,1,16
15940,-9.21,6.65,-5.63,0,0,1,16
15960,-8.49,5.55,-4.85,0,0,1,16
15980,-7.68,4.86,-3.48,0,0,1,16
16000,-7.28,4.67,-2.35,0,0,1,16
16020,-7.02,4.98,-2.53,0,0,1,16
16040,-7.23,4.86,-2.45,0,0,1,16
16060,-7.48,4.24,-2.46,0,0,1,16
16080,-7.58,3.11,-2.56,0,0,1,16
16100,-7.75,2.05,-2.92,0,0,1,16
16120,-7.95,1.71,-3.51,0,0,1,16
16140,-8.04,2.16,-3.67,0,0,1,16
16160,-8.18,3.25,-3.45,0,0,1,16
16180,-8.24,3.98,-3.41,0,0,1,16
16200,-8.17,4.4,-3.33,0,0,1,16
16220,-7.83,4.39,-3.25,0,0,1,16
16240,-7.48,4.28,-2.79,0,0,1,16
16260,-7.87,3.95,-2.33,0,0,1,16
16280,-10.51,3.26,-3.81,0,0,1,16
16300,-13.73,1.95,-7.92,0,0,1,16
16320,-11.04,1.26,-7.57,0,0,1,16
16340,-7.95,0.43,-2.51,0,0,1,16
16360,-6.5,0.64,-0.14,0,0,1,16
16380,-6.79,1.98,-1.13,0,0,1,16
16400,-7.98,2.22,-3.52,0,0,1,16
16420,-9.17,0.26,-6.0,0,0,1,16
16440,-9.24,-2.43,-7.12,0,0,1,16
16460,-9.21,-3.62,-7.28,0,0,1,16
16480,-7.87,-2.1,-5.79,0,0,1,16
16500,-8.19,-0.07,-4.01,0,0,1,16
16520,-7.94,1.3,-4.09,0,0,1,16
16540,-7.07,0.8,-4.6,0,0,1,16
16560,-7.55,-1.15,-4.87,0,0,1,16
16580,-7.88,-2.16,-6.21,0,0,1,16
16600,-8.18,-0.92,-7.13,0,0,1,16
16620,-8.76,1.01,-7.36,0,0,1,16
16640,-8.93,2.81,-7.47,0,0,1,16
16660,-7.88,3.78,-5.84,0,0,1,16
16680,-7.07,3.12,-3.74,0,0,1,16
16700,-7.3,1.14,-3.52,0,0,1,16
16720,-7.31,-1.23,-4.49,0,0,1,16
16740,-6.61,-2.85,-5.32,0,0,1,16
16760,-5.68,-2.93,-5.4,0,0,1,16
16780,-6.44,-1.56,-4.94,0,0,1,16
16800,-8.03,0.83,-3.76,0,0,1,16
16820,-7.59,2.27,-3.41,0,0,1,16
16840,-9.18,2.86,-2.97,0,0,1,16
16860,-7.72,3.51,-2.81,0,0,1,16
16880,-7.64,0.91,-4.04,0,0,1,16
16900,-7.94,-0.95,-4.13,0,0,1,16
16920,-8.29,-1.72,-4.08,0,0,1,16
16940,-9.25,-1.85,-4.08,0,0,1,16
16960,-9.08,-1.26,-2.66,0,0,1,16
16980,-7.95,-1.31,-2.63,0,0,1,16
16000,-7.28,4.67,-2.35,0,0,1,17
16020,-7.02,4.98,-2.53,0,0,1,17
16040,-7.23,4.86,-2.45,0,0,1,17
16060,-7.48,4.24,-2.46,0,0,1,17
16080,-7.58,3.11,-2.56,0,0,1,17
16100,-7.75,2.05,-2.92,0,0,1,17
16120,-7.95,1.71,-3.51,0,0,1,17
16140,-8.04,2.16,-3.67,0,0,1,17
16160,-8.18,3.25,-3.45,0,0,1,17
16180,-8.24,3.98,-3.41,0,0,1,17
16200,-8.17,4.4,-3.33,0,0,1,17
16220,-7.83,4.39,-3.25,0,0,1,17
16240,-7.48,4.28,-2.79,0,0,1,17
16260,-7.87,3.95,-2.33,0,0,1,17
16280,-10.51,3.26,-3.81,0,0,1,17
16300,-13.73,1.95,-7.92,0,0,1,17
16320,-11.04,1.26,-7.57,0,0,1,17
16340,-7.95,0.43,-2.51,0,0,1,17
16360,-6.5,0.64,-0.14,0,0,1,17
16380,-6.79,1.98,-1.13,0,0,1,17
16400,-7.98,2.22,-3.52,0,0,1,17
16420,-9.17,0.26,-6.0,0,0,1,17
16440,-9.24,-2.43,-7.12,0,0,1,17
16460,-9.21,-3.62,-7.28,0,0,1,17
16480,-7.87,-2.1,-5.79,0,0,1,17
16500,-8.19,-0.07,-4.01,0,0,1,17
16520,-7.94,1.3,-4.09,0,0,1,17
16540,-7.07,0.8,-4.6,0,0,1,17
16560,-7.55,-1.15,-4.87,0,0,1,17
16580,-7.88,-2.16,-6.21,0,0,1,17
16600,-8.18,-0.92,-7.13,0,0,1,17
16620,-8.76,1.01,-7.36,0,0,1,17
16640,-8.93,2.81,-7.47,0,0,1,17
16660,-7.88,3.78,-5.84,0,0,1,17
16680,-7.07,3.12,-3.74,0,0,1,17
16700,-7.3,1.14,-3.52,0,0,1,17
16720,-7.31,-1.23,-4.49,0,0,1,17
16740,-6.61,-2.85,-5.32,0,0,1,17
16760,-5.68,-2.93,-5.4,0,0,1,17
16780,-6.44,-1.56,-4.94,0,0,1,17
16800,-8.03,0.83,-3.76,0,0,1,17
16820,-7.59,2.27,-3.41,0,0,1,17
16840,-9.18,2.86,-2.97,0,0,1,17
16860,-7.72,3.51,-2.81,0,0,1,17
16880,-7.64,0.91,-4.04,0,0,1,17
16900,-7.94,-0.95,-4.13,0,0,1,17
16920,-8.29,-1.72,-4.08,0,0,1,17
16940,-9.25,-1.85,-4.08,0,0,1,17
16960,-9.08,-1.26,-2.66,0,0,1,17
16980,-7.95,-1.31,-2.63,0,0,1,17
17000,-8.99,-0.79,-3.66,0,0,1,17
17020,-9.33,0.9,-4.46,0,0,1,17
17040,-8.97,1.51,-3.83,0,0,1,17
17060,-7.87,1.25,-2.27,0,0,1,17
17080,-7.63,0.35,-1.34,0,0,1,17
17100,-8.91,-0.25,-1.13,0,0,1,17
17120,-9.63,-0.31,-2.04,0,0,1,17
17140,-8.89,-0.24,-2.69,0,0,1,17
17160,-8.63,0.06,-3.05,0,0,1,17
17180,-9.06,0.11,-2.54,0,0,1,17
17200,-8.84,0.55,-2.12,0,0,1,17
17220,-9.55,0.48,-2.41,0,0,1,17
17240,-10.08,0.13,-3.68,0,0,1,17
17260,-10.07,0.11,-3.79,0,0,1,17
17280,-10.08,0.51,-2.7,0,0,1,17
17300,-9.85,0.91,-2.05,0,0,1,17
17320,-9.29,0.63,-2.08,0,0,1,17
17340,-8.95,0.04,-2.49,0,0,1,17
17360,-9.42,-0.35,-2.97,0,0,1,17
17380,-9.6,-0.02,-3.27,0,0,1,17
17400,-9.66,0.28,-3.31,0,0,1,17
17420,-9.55,1.11,-2.6,0,0,1,17
17440,-9.47,1.04,-2.12,0,0,1,17
17460,-9.39,0.49,-2.52,0,0,1,17
17480,-9.7,-0.21,-3.14,0,0,1,17
17500,-9.65,-0.0,-3.54,0,0,1,17
17520,-10.2,0.51,-3.28,0,0,1,17
17540,-10.18,1.01,-2.72,0,0,1,17
17560,-9.96,0.9,-2.35,0,0,1,17
17580,-9.56,0.48,-2.41,0,0,1,17
17600,-9.23,-0.04,-2.91,0,0,1,17
17620,-9.07,-0.27,-2.99,0,0,1,17
17640,-9.3,0.44,-2.49,0,0,1,17
17660,-9.93,0.97,-2.68,0,0,1,17
17680,-10.44,0.86,-3.37,0,0,1,17
17700,-10.51,0.2,-3.91,0,0,1,17
17720,-9.98,0.54,-3.8,0,0,1,17
17740,-10.11,1.61,-3.06,0,0,1,17
17760,-10.22,1.74,-3.08,0,0,1,17
17780,-10.56,0.84,-3.23,0,0,1,17
17800,-10.64,0.18,-3.56,0,0,1,17
17820,-10.86,0.51,-3.61,0,0,1,17
17840,-10.91,1.32,-3.44,0,0,1,17
17860,-10.84,1.55,-3.45,0,0,1,17
17880,-10.81,1.35,-3.68,0,0,1,17
17900,-10.77,1.11,-3.78,0,0,1,17
17920,-10.34,0.48,-3.4,0,0,1,17
17940,-9.6,0.29,-2.97,0,0,1,17
17960,-9.08,0.59,-2.77,0,0,1,17
17980,-8.98,1.16,-2.98,0,0,1,17
17000,-8.99,-0.79,-3.66,0,0,1,18
17020,-9.33,0.9,-4.46,0,0,1,18
17040,-8.97,1.51,-3.83,0,0,1,18
17060,-7.87,1.25,-2.27,0,0,1,18
17080,-7.63,0.35,-1.34,0,0,1,18
17100,-8.91,-0.25,-1.13,0,0,1,18
17120,-9.63,-0.31,-2.04,0,0,1,18
17140,-8.89,-0.24,-2.69,0,0,1,18
17160,-8.63,0.06,-3.05,0,0,1,18
17180,-9.06,0.11,-2.54,0,0,1,18
17200,-8.84,0.55,-2.12,0,0,1,18
17220,-9.55,0.48,-2.41,0,0,1,18
17240,-10.08,0.13,-3.68,0,0,1,18
17260,-10.07,0.11,-3.79,0,0,1,18
17280,-10.08,0.51,-2.7,0,0,1,18
17300,-9.85,0.91,-2.05,0,0,1,18
17320,-9.29,0.63,-2.08,0,0,1,18
17340,-8.95,0.04,-2.49,0,0,1,18
17360,-9.42,-0.35,-2.97,0,0,1,18
17380,-9.6,-0.02,-3.27,0,0,1,18
17400,-9.66,0.28,-3.31,0,0,1,18
17420,-9.55,1.11,-2.6,0,0,1,18
17440,-9.47,1.04,-2.12,0,0,1,18
17460,-9.39,0.49,-2.52,0,0,1,18
17480,-9.7,-0.21,-3.14,0,0,1,18
17500,-9.65,-0.0,-3.54,0,0,1,18
17520,-10.2,0.51,-3.28,0,0,1,18
17540,-10.18,1.01,-2.72,0,0,1,18
17560,-9.96,0.9,-2.35,0,0,1,18
17580,-9.56,0.48,-2.41,0,0,1,18
17600,-9.23,-0.04,-2.91,0,0,1,18
17620,-9.07,-0.27,-2.99,0,0,1,18
17640,-9.3,0.44,-2.49,0,0,1,18
17660,-9.93,0.97,-2.68,0,0,1,18
17680,-10.44,0.86,-3.37,0,0,1,18
17700,-10.51,0.2,-3.91,0,0,1,18
17720,-9.98,0.54,-3.8,0,0,1,18
17740,-10.11,1.61,-3.06,0,0,1,18
17760,-10.22,1.74,-3.08,0,0,1,18
17780,-10.56,0.84,-3.23,0,0,1,18
17800,-10.64,0.18,-3.56,0,0,1,18
17820,-10.86,0.51,-3.61,0,0,1,18
17840,-10.91,1.32,-3.44,0,0,1,18
17860,-10.84,1.55,-3.45,0,0,1,18
17880,-10.81,1.35,-3.68,0,0,1,18
17900,-10.77,1.11,-3.78,0,0,1,18
17920,-10.34,0.48,-3.4,0,0,1,18
17940,-9.6,0.29,-2.97,0,0,1,18
17960,-9.08,0.59,-2.77,0,0,1,18
17980,-8.98,1.16,-2.98,0,0,1,18
18000,-9.06,1.34,-2.88,0,0,1,18
18020,-8.58,1.25,-2.82,0,0,1,18
18040,-8.09,1.09,-2.66,0,0,1,18
18060,-7.99,0.91,-2.49,0,0,1,18
18080,-8.22,1.0,-2.88,0,0,1,18
18100,-8.46,1.08,-3.01,0,0,1,18
18120,-8.51,0.94,-2.86,0,0,1,18
18140,-8.49,0.86,-2.7,0,0,1,18
18160,-8.69,0.84,-2.89,0,0,1,18
18180,-9.17,1.04,-3.33,0,0,1,18
18200,-9.42,1.09,-3.45,0,0,1,18
18220,-9.59,1.06,-3.2,0,0,1,18
18240,-9.78,1.06,-3.18,0,0,1,18
18260,-9.94,0.91,-3.48,0,0,1,18
18280,-10.16,0.8,-3.6,0,0,1,18
18300,-10.44,0.89,-3.59,0,0,1,18
18320,-11.11,1.11,-3.7,0,0,1,18
18340,-12.21,1.35,-4.4,0,0,1,18
18360,-13.75,1.37,-5.07,0,0,1,18
18380,-13.99,1.57,-4.91,0,0,1,18
18400,-14.17,0.82,-3.48,0,0,1,18
18420,-13.52,-0.4,-3.5,0,0,1,18
18440,-13.26,-0.9,-4.49,0,0,1,18
18460,-13.09,-0.67,-5.08,0,0,1,18
18480,-11.96,0.84,-4.2,0,0,1,18
18500,-11.25,1.81,-2.64,0,0,1,18
18520,-10.97,1.04,-2.7,0,0,1,18
18540,-9.17,-0.96,-2.54,0,0,1,18
18560,-10.03,-0.87,-2.42,0,0,1,18
18580,-10.14,-1.02,-3.4,0,0,1,18
18600,-8.4,-1.42,-2.64,0,0,1,18
18620,-8.95,-1.03,-2.44,0,0,1,18
18640,-9.66,-0.24,-2.75,0,0,1,18
18660,-8.45,0.35,-1.68,0,0,1,18
18680,-7.99,-0.63,-2.03,0,0,1,18
18700,-8.76,-1.07,-2.85,0,0,1,18
18720,-9.28,-1.09,-3.25,0,0,1,18
18740,-8.79,-0.82,-2.69,0,0,1,18
18760,-8.09,-0.86,-3.07,0,0,1,18
18780,-7.27,-0.79,-3.39,0,0,1,18
18800,-7.22,-0.85,-2.81,0,0,1,18
18820,-7.07,-0.99,-2.78,0,0,1,18
18840,-6.99,-0.96,-3.04,0,0,1,18
18860,-7.2,-0.87,-3.34,0,0,1,18
18880,-7.47,-0.88,-3.22,0,0,1,18
18900,-7.57,-1.4,-3.53,0,0,1,18
18920,-7.47,-1.73,-3.84,0,0,1,18
18940,-7.69,-1.89,-4.12,0,0,1,18
18960,-7.73,-1.2,-4.29,0,0,1,18
18980,-7.61,-0.86,-4.12,0,0,1,18
18000,-9.06,1.34,-2.88,0,0,1,19
18020,-8.58,1.25,-2.82,0,0,1,19
18040,-8.09,1.09,-2.66,0,0,1,19
18060,-7.99,0.91,-2.49,0,0,1,19
18080,-8.22,1.0,-2.88,0,0,1,19
18100,-8.46,1.08,-3.01,0,0,1,19
18120,-8.51,0.94,-2.86,0,0,1,19
18140,-8.49,0.86,-2.7,0,0,1,19
18160,-8.69,0.84,-2.89,0,0,1,19
18180,-9.17,1.04,-3.33,0,0,1,19
18200,-9.42,1.09,-3.45,0,0,1,19
18220,-9.59,1.06,-3.2,0,0,1,19
18240,-9.78,1.06,-3.18,0,0,1,19
18260,-9.94,0.91,-3.48,0,0,1,19
18280,-10.16,0.8,-3.6,0,0,1,19
18300,-10.44,0.89,-3.59,0,0,1,19
18320,-11.11,1.11,-3.7,0,0,1,19
18340,-12.21,1.35,-4.4,0,0,1,19
18360,-13.75,1.37,-5.07,0,0,1,19
18380,-13.99,1.57,-4.91,0,0,1,19
18400,-14.17,0.82,-3.48,0,0,1,19
18420,-13.52,-0.4,-3.5,0,0,1,19
18440,-13.26,-0.9,-4.49,0,0,1,19
18460,-13.09,-0.67,-5.08,0,0,1,19
18480,-11.96,0.84,-4.2,0,0,1,19
18500,-11.25,1.81,-2.64,0,0,1,19
18520,-10.97,1.04,-2.7,0,0,1,19
18540,-9.17,-0.96,-2.54,0,0,1,19
18560,-10.03,-0.87,-2.42,0,0,1,19
18580,-10.14,-1.02,-3.4,0,0,1,19
18600,-8.4,-1.42,-2.64,0,0,1,19
18620,-8.95,-1.03,-2.44,0,0,1,19
18640,-9.66,-0.24,-2.75,0,0,1,19
18660,-8.45,0.35,-1.68,0,0,1,19
18680,-7.99,-0.63,-2.03,0,0,1,19
18700,-8.76,-1.07,-2.85,0,0,1,19
18720,-9.28,-1.09,-3.25,0,0,1,19
18740,-8.79,-0.82,-2.69,0,0,1,19
18760,-8.09,-0.86,-3.07,0,0,1,19
18780,-7.27,-0.79,-3.39,0,0,1,19
18800,-7.22,-0.85,-2.81,0,0,1,19
18820,-7.07,-0.99,-2.78,0,0,1,19
18840,-6.99,-0.96,-3.04,0,0,1,19
18860,-7.2,-0.87,-3.34,0,0,1,19
18880,-7.47,-0.88,-3.22,0,0,1,19
18900,-7.57,-1.4,-3.53,0,0,1,19
18920,-7.47,-1.73,-3.84,0,0,1,19
18940,-7.69,-1.89,-4.12,0,0,1,19
18960,-7.73,-1.2,-4.29,0,0,1,19
18980,-7.61,-0.86,-4.12,0,0,1,19
19000,-7.0,-0.57,-3.54,0,0,1,19
19020,-6.68,-0.83,-3.12,0,0,1,19
19040,-6.56,-1.04,-3.53,0,0,1,19
19060,-6.99,-0.95,-4.12,0,0,1,19
19080,-6.71,-0.62,-4.45,0,0,1,19
19100,-7.0,-0.76,-4.18,0,0,1,19
19120,-7.06,-1.16,-4.28,0,0,1,19
19140,-6.7,-1.77,-4.71,0,0,1,19
19160,-6.35,-2.16,-4.58,0,0,1,19
19180,-6.73,-2.22,-4.11,0,0,1,19
19200,-7.04,-2.32,-4.36,0,0,1,19
19220,-7.49,-2.32,-4.76,0,0,1,19
19240,-8.67,-2.1,-5.77,0,0,1,19
19260,-8.97,-1.43,-7.02,0,0,1,19
19280,-8.86,-0.88,-6.6,0,0,1,19
19300,-8.07,-0.21,-4.85,0,0,1,19
19320,-7.36,0.04,-4.28,0,0,1,19
19340,-7.35,0.17,-4.73,0,0,1,19
19360,-7.75,0.38,-5.54,0,0,1,19
19380,-8.13,0.36,-6.13,0,0,1,19
19400,-8.17,0.22,-6.91,0,0,1,19
19420,-7.82,0.6,-6.86,0,0,1,19
19440,-7.86,1.16,-6.12,0,0,1,19
19460,-7.84,1.54,-5.16,0,0,1,19
19480,-7.68,1.35,-5.25,0,0,1,19
19500,-7.75,0.95,-5.99,0,0,1,19
19520,-7.9,0.95,-6.5,0,0,1,19
19540,-7.99,1.77,-6.77,0,0,1,19
19560,-8.12,2.59,-6.48,0,0,1,19
19580,-7.74,3.11,-5.8,0,0,1,19
19600,-7.43,2.96,-5.36,0,0,1,19
19620,-7.18,2.62,-5.6,0,0,1,19
19640,-7.48,2.57,-5.97,0,0,1,19
19660,-7.53,2.75,-6.05,0,0,1,19
19680,-7.45,2.87,-5.86,0,0,1,19
19700,-7.48,2.88,-5.71,0,0,1,19
19720,-7.88,2.63,-5.74,0,0,1,19
19740,-7.94,2.1,-5.71,0,0,1,19
19760,-7.88,1.68,-5.8,0,0,1,19
19780,-7.77,1.52,-5.87,0,0,1,19
19800,-7.53,1.76,-5.61,0,0,1,19
19820,-7.85,2.08,-5.52,0,0,1,19
19840,-7.67,2.14,-5.68,0,0,1,19
19860,-7.47,1.66,-5.89,0,0,1,19
19880,-7.21,1.36,-6.26,0,0,1,19
19900,-7.41,1.6,-6.23,0,0,1,19
19920,-7.57,1.8,-6.36,0,0,1,19
19940,-8.81,2.57,-5.3,0,0,1,19
19960,-8.01,2.99,-5.38,0,0,1,19
19980,-8.71,2.22,-6.88,0,0,1,19
19000,-7.0,-0.57,-3.54,0,0,1,20
19020,-6.68,-0.83,-3.12,0,0,1,20
19040,-6.56,-1.04,-3.53,0,0,1,20
19060,-6.99,-0.95,-4.12,0,0,1,20
19080,-6.71,-0.62,-4.45,0,0,1,20
19100,-7.0,-0.76,-4.18,0,0,1,20
19120,-7.06,-1.16,-4.28,0,0,1,20
19140,-6.7,-1.77,-4.71,0,0,1,20
19160,-6.35,-2.16,-4.58,0,0,1,20
19180,-6.73,-2.22,-4.11,0,0,1,20
19200,-7.04,-2.32,-4.36,0,0,1,20
19220,-7.49,-2.32,-4.76,0,0,1,20
19240,-8.67,-2.1,-5.77,0,0,1,20
19260,-8.97,-1.43,-7.02,0,0,1,20
19280,-8.86,-0.88,-6.6,0,0,1,20
19300,-8.07,-0.21,-4.85,0,0,1,20
19320,-7.36,0.04,-4.28,0,0,1,20
19340,-7.35,0.17,-4.73,0,0,1,20
19360,-7.75,0.38,-5.54,0,0,1,20
19380,-8.13,0.36,-6.13,0,0,1,20
19400,-8.17,0.22,-6.91,0,0,1,20
19420,-7.82,0.6,-6.86,0,0,1,20
19440,-7.86,1.16,-6.12,0,0,1,20
19460,-7.84,1.54,-5.16,0,0,1,20
19480,-7.68,1.35,-5.25,0,0,1,20
19500,-7.75,0.95,-5.99,0,0,1,20
19520,-7.9,0.95,-6.5,0,0,1,20
19540,-7.99,1.77,-6.77,0,0,1,20
19560,-8.12,2.59,-6.48,0,0,1,20
19580,-7.74,3.11,-5.8,0,0,1,20
19600,-7.43,2.96,-5.36,0,0,1,20
19620,-7.18,2.62,-5.6,0,0,1,20
19640,-7.48,2.57,-5.97,0,0,1,20
19660,-7.53,2.75,-6.05,0,0,1,20
19680,-7.45,2.87,-5.86,0,0,1,20
19700,-7.48,2.88,-5.71,0,0,1,20
19720,-7.88,2.63,-5.74,0,0,1,20
19740,-7.94,2.1,-5.71,0,0,1,20
19760,-7.88,1.68,-5.8,0,0,1,20
19780,-7.77,1.52,-5.87,0,0,1,20
19800,-7.53,1.76,-5.61,0,0,1,20
19820,-7.85,2.08,-5.52,0,0,1,20
19840,-7.67,2.14,-5.68,0,0,1,20
19860,-7.47,1.66,-5.89,0,0,1,20
19880,-7.21,1.36,-6.26,0,0,1,20
19900,-7.41,1.6,-6.23,0,0,1,20
19920,-7.57,1.8,-6.36,0,0,1,20
19940,-8.81,2.57,-5.3,0,0,1,20
19960,-8.01,2.99,-5.38,0,0,1,20
19980,-8.71,2.22,-6.88,0,0,1,20
20000,-10.55,2.0,-7.66,0,0,1,20
20020,-9.85,1.86,-6.85,0,0,1,20
20040,-9.06,1.71,-6.09,0,0,1,20
20060,-8.54,1.82,-5.82,0,0,1,20
20080,-8.47,1.66,-6.06,0,0,1,20
20100,-8.77,1.23,-5.69,0,0,1,20
20120,-8.57,0.84,-4.48,0,0,1,20
20140,-8.08,0.58,-3.72,0,0,1,20
20160,-7.65,-0.42,-3.51,0,0,1,20
20180,-7.27,-1.27,-3.24,0,0,1,20
20200,-6.85,-2.05,-1.99,0,0,1,20
20220,-7.93,-1.81,-3.42,0,0,1,20
20240,-9.45,0.08,-3.88,0,0,1,20
20260,-10.74,2.95,-5.13,0,0,1,20
20280,-11.77,4.31,-5.7,0,0,1,20
20300,-10.46,4.33,-6.05,0,0,1,20
20320,-9.32,2.79,-5.13,0,0,1,20
20340,-7.98,0.86,-3.03,0,0,1,20
20360,-7.07,0.04,-2.61,0,0,1,20
20380,-7.0,0.68,-2.9,0,0,1,20
20400,-7.76,1.38,-3.25,0,0,1,20
20420,-8.11,1.83,-3.59,0,0,1,20
20440,-7.75,2.1,-3.51,0,0,1,20
20460,-7.29,2.24,-3.26,0,0,1,20
20480,-6.84,2.98,-3.2,0,0,1,20
20500,-6.78,3.59,-3.32,0,0,1,20
20520,-7.28,3.64,-3.28,0,0,1,20
20540,-8.21,2.84,-3.61,0,0,1,20
20560,-7.54,2.14,-4.41,0,0,1,20
20580,-7.17,1.45,-4.58,0,0,1,20
20600,-10.54,0.74,-3.92,0,0,1,20
20620,-13.62,2.07,-7.76,0,0,1,20
20640,-13.01,3.35,-10.83,0,0,1,20
20660,-9.31,3.17,-6.79,0,0,1,20
20680,-7.66,1.87,-0.53,0,0,1,20
20700,-7.85,0.75,-0.48,0,0,1,20
20720,-8.16,-0.3,-2.88,0,0,1,20
20740,-8.37,-1.51,-4.68,0,0,1,20
20760,-8.4,-1.49,-5.67,0,0,1,20
20780,-8.15,-0.26,-6.45,0,0,1,20
20800,-8.04,1.66,-5.88,0,0,1,20
20820,-7.73,2.2,-4.99,0,0,1,20
20840,-7.56,1.18,-4.77,0,0,1,20
20860,-7.59,-0.06,-4.95,0,0,1,20
20880,-7.33,-0.21,-5.25,0,0,1,20
20900,-8.04,1.13,-5.87,0,0,1,20
20920,-8.41,2.01,-6.53,0,0,1,20
20940,-9.15,1.88,-6.84,0,0,1,20
20960,-8.65,1.68,-6.03,0,0,1,20
20980,-7.87,1.46,-5.16,0,0,1,20
20000,-10.55,2.0,-7.66,0,0,1,21
20020,-9.85,1.86,-6.85,0,0,1,21
20040,-9.06,1.71,-6.09,0,0,1,21
20060,-8.54,1.82,-5.82,0,0,1,21
20080,-8.47,1.66,-6.06,0,0,1,21
20100,-8.77,1.23,-5.69,0,0,1,21
20120,-8.57,0.84,-4.48,0,0,1,21
20140,-8.08,0.58,-3.72,0,0,1,21
20160,-7.65,-0.42,-3.51,0,0,1,21
20180,-7.27,-1.27,-3.24,0,0,1,21
20200,-6.85,-2.05,-1.99,0,0,1,21
20220,-7.93,-1.81,-3.42,0,0,1,21
20240,-9.45,0.08,-3.88,0,0,1,21
20260,-10.74,2.95,-5.13,0,0,1,21
20280,-11.77,4.31,-5.7,0,0,1,21
20300,-10.46,4.33,-6.05,0,0,1,21
20320,-9.32,2.79,-5.13,0,0,1,21
20340,-7.98,0.86,-3.03,0,0,1,21
20360,-7.07,0.04,-2.61,0,0,1,21
20380,-7.0,0.68,-2.9,0,0,1,21
20400,-7.76,1.38,-3.25,0,0,1,21
20420,-8.11,1.83,-3.59,0,0,1,21
20440,-7.75,2.1,-3.51,0,0,1,21
20460,-7.29,2.24,-3.26,0,0,1,21
20480,-6.84,2.98,-3.2,0,0,1,21
20500,-6.78,3.59,-3.32,0,0,1,21
20520,-7.28,3.64,-3.28,0,0,1,21
20540,-8.21,2.84,-3.61,0,0,1,21
20560,-7.54,2.14,-4.41,0,0,1,21
20580,-7.17,1.45,-4.58,0,0,1,21
20600,-10.54,0.74,-3.92,0,0,1,21
20620,-13.62,2.07,-7.76,0,0,1,21
20640,-13.01,3.35,-10.83,0,0,1,21
20660,-9.31,3.17,-6.79,0,0,1,21
20680,-7.66,1.87,-0.53,0,0,1,21
20700,-7.85,0.75,-0.48,0,0,1,21
20720,-8.16,-0.3,-2.88,0,0,1,21
20740,-8.37,-1.51,-4.68,0,0,1,21
20760,-8.4,-1.49,-5.67,0,0,1,21
20780,-8.15,-0.26,-6.45,0,0,1,21
20800,-8.04,1.66,-5.88,0,0,1,21
20820,-7.73,2.2,-4.99,0,0,1,21
20840,-7.56,1.18,-4.77,0,0,1,21
20860,-7.59,-0.06,-4.95,0,0,1,21
20880,-7.33,-0.21,-5.25,0,0,1,21
20900,-8.04,1.13,-5.87,0,0,1,21
20920,-8.41,2.01,-6.53,0,0,1,21
20940,-9.15,1.88,-6.84,0,0,1,21
20960,-8.65,1.68,-6.03,0,0,1,21
20980,-7.87,1.46,-5.16,0,0,1,21
21000,-7.11,1.18,-4.5,0,0,1,21
21020,-7.37,1.05,-4.65,0,0,1,21
21040,-7.55,1.14,-5.45,0,0,1,21
21060,-7.7,1.37,-6.16,0,0,1,21
21080,-7.85,2.06,-6.11,0,0,1,21
21100,-7.76,2.7,-5.66,0,0,1,21
21120,-7.53,2.74,-5.43,0,0,1,21
21140,-7.51,2.44,-5.65,0,0,1,21
21160,-7.75,2.4,-5.71,0,0,1,21
21180,-7.56,2.32,-5.66,0,0,1,21
21200,-7.24,2.15,-5.15,0,0,1,21
21220,-7.26,2.27,-5.28,0,0,1,21
21240,-7.7,2.29,-5.83,0,0,1,21
21260,-7.92,1.96,-6.2,0,0,1,21
21280,-7.81,1.62,-6.19,0,0,1,21
21300,-7.55,1.6,-5.98,0,0,1,21
21320,-7.3,1.9,-5.94,0,0,1,21
21340,-7.07,2.4,-6.07,0,0,1,21
21360,-6.57,2.36,-6.47,0,0,1,21
21380,-10.3,2.68,-4.91,0,0,1,21
21400,-10.29,4.75,-4.99,0,0,1,21
21420,-10.88,5.2,-5.09,0,0,1,21
21440,-10.67,3.57,-6.2,0,0,1,21
21460,-9.88,0.14,-7.24,0,0,1,21
21480,-10.14,-2.9,-6.5,0,0,1,21
21500,-9.2,-3.57,-5.48,0,0,1,21
21520,-7.35,-1.19,-3.44,0,0,1,21
21540,-5.16,2.96,0.88,0,0,1,21
21560,-6.45,5.58,-0.33,0,0,1,21
21580,-10.44,5.25,-4.66,0,0,1,21
21600,-12.41,3.31,-8.12,0,0,1,21
21620,-11.35,1.25,-7.66,0,0,1,21
21640,-8.79,-0.23,-3.74,0,0,1,21
21660,-6.93,0.01,-1.58,0,0,1,21
21680,-6.8,1.04,-2.09,0,0,1,21
21700,-7.64,1.9,-3.99,0,0,1,21
21720,-8.36,2.28,-4.9,0,0,1,21
21740,-8.3,2.25,-4.32,0,0,1,21
21760,-7.86,2.22,-3.78,0,0,1,21
21780,-7.7,2.58,-3.61,0,0,1,21
21800,-7.89,3.28,-3.75,0,0,1,21
21820,-7.72,3.53,-3.74,0,0,1,21
21840,-7.58,3.54,-3.41,0,0,1,21
21860,-7.41,3.03,-3.22,0,0,1,21
21880,-7.3,2.45,-3.42,0,0,1,21
21900,-7.51,1.92,-3.73,0,0,1,21
21920,-8.18,1.6,-4.14,0,0,1,21
21940,-8.54,2.0,-4.41,0,0,1,21
21960,-8.91,2.66,-3.99,0,0,1,21
21980,-8.39,3.29,-3.73,0,0,1,21
21000,-7.11,1.18,-4.5,0,0,1,22
21020,-7.37,1.05,-4.65,0,0,1,22
21040,-7.55,1.14,-5.45,0,0,1,22
21060,-7.7,1.37,-6.16,0,0,1,22
21080,-7.85,2.06,-6.11,0,0,1,22
21100,-7.76,2.7,-5.66,0,0,1,22
21120,-7.53,2.74,-5.43,0,0,1,22
21140,-7.51,2.44,-5.65,0,0,1,22
21160,-7.75,2.4,-5.71,0,0,1,22
21180,-7.56,2.32,-5.66,0,0,1,22
21200,-7.24,2.15,-5.15,0,0,1,22
21220,-7.26,2.27,-5.28,0,0,1,22
21240,-7.7,2.29,-5.83,0,0,1,22
21260,-7.92,1.96,-6.2,0,0,1,22
21280,-7.81,1.62,-6.19,0,0,1,22
21300,-7.55,1.6,-5.98,0,0,1,22
21320,-7.3,1.9,-5.94,0,0,1,22
21340,-7.07,2.4,-6.07,0,0,1,22
21360,-6.57,2.36,-6.47,0,0,1,22
21380,-10.3,2.68,-4.91,0,0,1,22
21400,-10.29,4.75,-4.99,0,0,1,22
21420,-10.88,5.2,-5.09,0,0,1,22
21440,-10.67,3.57,-6.2,0,0,1,22
21460,-9.88,0.14,-7.24,0,0,1,22
21480,-10.14,-2.9,-6.5,0,0,1,22
21500,-9.2,-3.57,-5.48,0,0,1,22
21520,-7.35,-1.19,-3.44,0,0,1,22
21540,-5.16,2.96,0.88,0,0,1,22
21560,-6.45,5.58,-0.33,0,0,1,22
21580,-10.44,5.25,-4.66,0,0,1,22
21600,-12.41,3.31,-8.12,0,0,1,22
21620,-11.35,1.25,-7.66,0,0,1,22
21640,-8.79,-0.23,-3.74,0,0,1,22
21660,-6.93,0.01,-1.58,0,0,1,22
21680,-6.8,1.04,-2.09,0,0,1,22
21700,-7.64,1.9,-3.99,0,0,1,22
21720,-8.36,2.28,-4.9,0,0,1,22
21740,-8.3,2.25,-4.32,0,0,1,22
21760,-7.86,2.22,-3.78,0,0,1,22
21780,-7.7,2.58,-3.61,0,0,1,22
21800,-7.89,3.28,-3.75,0,0,1,22
21820,-7.72,3.53,-3.74,0,0,1,22
21840,-7.58,3.54,-3.41,0,0,1,22
21860,-7.41,3.03,-3.22,0,0,1,22
21880,-7.3,2.45,-3.42,0,0,1,22
21900,-7.51,1.92,-3.73,0,0,1,22
21920,-8.18,1.6,-4.14,0,0,1,22
21940,-8.54,2.0,-4.41,0,0,1,22
21960,-8.91,2.66,-3.99,0,0,1,22
21980,-8.39,3.29,-3.73,0,0,1,22
22000,-8.44,3.89,-4.0,0,0,1,22
22020,-8.57,4.24,-4.74,0,0,1,22
22040,-8.59,3.62,-4.85,0,0,1,22
22060,-11.16,1.78,-4.77,0,0,1,22
22080,-12.04,1.8,-7.85,0,0,1,22
22100,-11.12,0.56,-9.39,0,0,1,22
22120,-9.39,0.48,-3.76,0,0,1,22
22140,-7.18,1.41,-1.46,0,0,1,22
22160,-7.19,1.59,-1.68,0,0,1,22
22180,-8.31,1.51,-4.71,0,0,1,22
22200,-9.24,0.22,-5.6,0,0,1,22
22220,-9.18,-0.9,-5.2,0,0,1,22
22240,-8.84,-1.32,-4.65,0,0,1,22
22260,-8.06,-0.82,-4.96,0,0,1,22
22280,-7.69,-0.28,-4.32,0,0,1,22
22300,-7.25,0.19,-4.6,0,0,1,22
22320,-7.48,-0.02,-5.52,0,0,1,22
22340,-8.46,-0.4,-5.42,0,0,1,22
22360,-8.52,-0.23,-5.4,0,0,1,22
22380,-8.02,0.62,-5.4,0,0,1,22
22400,-8.16,0.64,-5.75,0,0,1,22
22420,-8.22,0.75,-5.71,0,0,1,22
22440,-8.1,0.85,-5.41,0,0,1,22
22460,-7.93,1.04,-5.2,0,0,1,22
22480,-7.92,1.1,-5.13,0,0,1,22
22500,-7.75,1.64,-5.2,0,0,1,22
22520,-8.04,2.43,-5.47,0,0,1,22
22540,-8.17,3.11,-6.08,0,0,1,22
22560,-8.24,3.35,-5.99,0,0,1,22
22580,-8.26,3.06,-5.43,0,0,1,22
22600,-8.12,2.28,-4.88,0,0,1,22
22620,-7.63,1.66,-4.44,0,0,1,22
22640,-7.4,1.52,-4.68,0,0,1,22
22660,-7.68,1.68,-5.41,0,0,1,22
22680,-7.97,2.09,-5.71,0,0,1,22
22700,-7.91,2.63,-5.34,0,0,1,22
22720,-7.93,2.39,-4.75,0,0,1,22
22740,-7.52,1.65,-4.92,0,0,1,22
22760,-7.03,0.47,-5.65,0,0,1,22
22780,-9.43,-0.47,-4.76,0,0,1,22
22800,-8.53,0.89,-3.42,0,0,1,22
22820,-9.8,1.58,-3.18,0,0,1,22
22840,-11.51,2.3,-4.45,0,0,1,22
22860,-12.18,0.85,-7.59,0,0,1,22
22880,-12.04,-1.5,-9.98,0,0,1,22
22900,-10.2,-1.87,-8.36,0,0,1,22
22920,-7.44,-0.74,-4.73,0,0,1,22
22940,-5.9,0.2,-0.59,0,0,1,22
22960,-6.28,1.71,-0.03,0,0,1,22
22980,-7.97,2.33,-1.33,0,0,1,22
22000,-8.44,3.89,-4.0,0,0,1,23
22020,-8.57,4.24,-4.74,0,0,1,23
22040,-8.59,3.62,-4.85,0,0,1,23
22060,-11.16,1.78,-4.77,0,0,1,23
22080,-12.04,1.8,-7.85,0,0,1,23
22100,-11.12,0.56,-9.39,0,0,1,23
22120,-9.39,0.48,-3.76,0,0,1,23
22140,-7.18,1.41,-1.46,0,0,1,23
22160,-7.19,1.59,-1.68,0,0,1,23
22180,-8.31,1.51,-4.71,0,0,1,23
22200,-9.24,0.22,-5.6,0,0,1,23
22220,-9.18,-0.9,-5.2,0,0,1,23
22240,-8.84,-1.32,-4.65,0,0,1,23
22260,-8.06,-0.82,-4.96,0,0,1,23
22280,-7.69,-0.28,-4.32,0,0,1,23
22300,-7.25,0.19,-4.6,0,0,1,23
22320,-7.48,-0.02,-5.52,0,0,1,23
22340,-8.46,-0.4,-5.42,0,0,1,23
22360,-8.52,-0.23,-5.4,0,0,1,23
22380,-8.02,0.62,-5.4,0,0,1,23
22400,-8.16,0.64,-5.75,0,0,1,23
22420,-8.22,0.75,-5.71,0,0,1,23
22440,-8.1,0.85,-5.41,0,0,1,23
22460,-7.93,1.04,-5.2,0,0,1,23
22480,-7.92,1.1,-5.13,0,0,1,23
22500,-7.75,1.64,-5.2,0,0,1,23
22520,-8.04,2.43,-5.47,0,0,1,23
22540,-8.17,3.11,-6.08,0,0,1,23
22560,-8.24,3.35,-5.99,0,0,1,23
22580,-8.26,3.06,-5.43,0,0,1,23
22600,-8.12,2.28,-4.88,0,0,1,23
22620,-7.63,1.66,-4.44,0,0,1,23
22640,-7.4,1.52,-4.68,0,0,1,23
22660,-7.68,1.68,-5.41,0,0,1,23
22680,-7.97,2.09,-5.71,0,0,1,23
22700,-7.91,2.63,-5.34,0,0,1,23
22720,-7.93,2.39,-4.75,0,0,1,23
22740,-7.52,1.65,-4.92,0,0,1,23
22760,-7.03,0.47,-5.65,0,0,1,23
22780,-9.43,-0.47,-4.76,0,0,1,23
22800,-8.53,0.89,-3.42,0,0,1,23
22820,-9.8,1.58,-3.18,0,0,1,23
22840,-11.51,2.3,-4.45,0,0,1,23
22860,-12.18,0.85,-7.59,0,0,1,23
22880,-12.04,-1.5,-9.98,0,0,1,23
22900,-10.2,-1.87,-8.36,0,0,1,23
22920,-7.44,-0.74,-4.73,0,0,1,23
22940,-5.9,0.2,-0.59,0,0,1,23
22960,-6.28,1.71,-0.03,0,0,1,23
22980,-7.97,2.33,-1.33,0,0,1,23
23000,-9.64,2.2,-3.07,0,0,1,23
23020,-10.56,2.28,-4.67,0,0,1,23
23040,-10.68,1.78,-5.55,0,0,1,23
23060,-10.24,0.65,-4.69,0,0,1,23
23080,-8.38,0.42,-2.76,0,0,1,23
23100,-6.99,0.76,-0.47,0,0,1,23
23120,-7.27,1.09,-0.64,0,0,1,23
23140,-8.85,0.94,-1.9,0,0,1,23
23160,-8.95,1.15,-1.98,0,0,1,23
23180,-8.35,0.94,-1.41,0,0,1,23
23200,-7.82,0.48,-1.85,0,0,1,23
23220,-8.19,0.04,-2.44,0,0,1,23
23240,-9.32,-0.56,-2.05,0,0,1,23
23260,-10.01,-1.02,-3.17,0,0,1,23
23280,-11.9,-2.32,-5.22,0,0,1,23
23300,-11.67,-2.43,-6.84,0,0,1,23
23320,-9.25,-2.1,-5.39,0,0,1,23
23340,-8.02,-2.49,-1.62,0,0,1,23
23360,-7.68,-1.51,-0.93,0,0,1,23
23380,-8.08,-0.25,-1.88,0,0,1,23
23400,-7.89,-0.34,-2.11,0,0,1,23
23420,-8.55,-2.49,-2.81,0,0,1,23
23440,-9.58,-4.22,-4.37,0,0,1,23
23460,-10.25,-4.28,-4.96,0,0,1,23
23480,-9.32,-2.68,-3.91,0,0,1,23
23500,-8.63,-1.83,-2.64,0,0,1,23
23520,-8.18,-1.57,-1.91,0,0,1,23
23540,-8.07,-2.0,-2.34,0,0,1,23
23560,-8.85,-2.89,-2.84,0,0,1,23
23580,-8.8,-3.14,-3.07,0,0,1,23
23600,-8.42,-3.3,-2.82,0,0,1,23
23620,-8.84,-3.08,-3.11,0,0,1,23
23640,-9.22,-3.12,-3.14,0,0,1,23
23660,-8.84,-3.54,-2.49,0,0,1,23
23680,-8.27,-3.97,-2.4,0,0,1,23
23700,-8.26,-3.84,-2.31,0,0,1,23
23720,-8.53,-3.78,-2.62,0,0,1,23
23740,-8.64,-3.85,-2.79,0,0,1,23
23760,-8.63,-3.99,-2.51,0,0,1,23
23780,-8.3,-4.01,-2.26,0,0,1,23
23800,-8.02,-3.81,-2.29,0,0,1,23
23820,-8.1,-4.01,-2.46,0,0,1,23
23840,-8.2,-4.46,-2.57,0,0,1,23
23860,-7.98,-4.75,-2.19,0,0,1,23
23880,-8.28,-4.78,-1.65,0,0,1,23
23900,-8.74,-4.88,-2.03,0,0,1,23
23920,-8.9,-5.06,-2.54,0,0,1,23
23940,-8.44,-5.17,-2.47,0,0,1,23
23960,-7.59,-5.0,-1.86,0,0,1,23
23980,-6.96,-4.57,-1.3,0,0,1,23
23000,-9.64,2.2,-3.07,0,0,1,24
23020,-10.56,2.28,-4.67,0,0,1,24
23040,-10.68,1.78,-5.55,0,0,1,24
23060,-10.24,0.65,-4.69,0,0,1,24
23080,-8.38,0.42,-2.76,0,0,1,24
23100,-6.99,0.76,-0.47,0,0,1,24
23120,-7.27,1.09,-0.64,0,0,1,24
23140,-8.85,0.94,-1.9,0,0,1,24
23160,-8.95,1.15,-1.98,0,0,1,24
23180,-8.35,0.94,-1.41,0,0,1,24
23200,-7.82,0.48,-1.85,0,0,1,24
23220,-8.19,0.04,-2.44,0,0,1,24
23240,-9.32,-0.56,-2.05,0,0,1,24
23260,-10.01,-1.02,-3.17,0,0,1,24
23280,-11.9,-2.32,-5.22,0,0,1,24
23300,-11.67,-2.43,-6.84,0,0,1,24
23320,-9.25,-2.1,-5.39,0,0,1,24
23340,-8.02,-2.49,-1.62,0,0,1,24
23360,-7.68,-1.51,-0.93,0,0,1,24
23380,-8.08,-0.25,-1.88,0,0,1,24
23400,-7.89,-0.34,-2.11,0,0,1,24
23420,-8.55,-2.49,-2.81,0,0,1,24
23440,-9.58,-4.22,-4.37,0,0,1,24
23460,-10.25,-4.28,-4.96,0,0,1,24
23480,-9.32,-2.68,-3.91,0,0,1,24
23500,-8.63,-1.83,-2.64,0,0,1,24
23520,-8.18,-1.57,-1.91,0,0,1,24
23540,-8.07,-2.0,-2.34,0,0,1,24
23560,-8.85,-2.89,-2.84,0,0,1,24
23580,-8.8,-3.14,-3.07,0,0,1,24
23600,-8.42,-3.3,-2.82,0,0,1,24
23620,-8.84,-3.08,-3.11,0,0,1,24
23640,-9.22,-3.12,-3.14,0,0,1,24
23660,-8.84,-3.54,-2.49,0,0,1,24
23680,-8.27,-3.97,-2.4,0,0,1,24
23700,-8.26,-3.84,-2.31,0,0,1,24
23720,-8.53,-3.78,-2.62,0,0,1,24
23740,-8.64,-3.85,-2.79,0,0,1,24
23760,-8.63,-3.99,-2.51,0,0,1,24
23780,-8.3,-4.01,-2.26,0,0,1,24
23800,-8.02,-3.81,-2.29,0,0,1,24
23820,-8.1,-4.01,-2.46,0,0,1,24
23840,-8.2,-4.46,-2.57,0,0,1,24
23860,-7.98,-4.75,-2.19,0,0,1,24
23880,-8.28,-4.78,-1.65,0,0,1,24
23900,-8.74,-4.88,-2.03,0,0,1,24
23920,-8.9,-5.06,-2.54,0,0,1,24
23940,-8.44,-5.17,-2.47,0,0,1,24
23960,-7.59,-5.0,-1.86,0,0,1,24
23980,-6.96,-4.57,-1.3,0,0,1,24
24000,-7.25,-4.37,-1.32,0,0,1,24
24020,-7.92,-4.57,-1.65,0,0,1,24
24040,-8.12,-5.08,-2.18,0,0,1,24
24060,-8.11,-5.8,-2.2,0,0,1,24
24080,-7.96,-6.16,-2.28,0,0,1,24
24100,-7.96,-5.73,-2.13,0,0,1,24
24120,-7.83,-4.98,-1.9,0,0,1,24
24140,-7.54,-4.87,-1.63,0,0,1,24
24160,-7.83,-5.5,-1.5,0,0,1,24
24180,-8.19,-5.78,-2.06,0,0,1,24
24200,-8.35,-5.87,-2.34,0,0,1,24
24220,-8.23,-6.0,-2.0,0,0,1,24
24240,-8.12,-5.93,-1.7,0,0,1,24
24260,-8.23,-5.64,-1.86,0,0,1,24
24280,-8.25,-5.74,-2.05,0,0,1,24
24300,-8.21,-5.98,-2.13,0,0,1,24
24320,-7.94,-5.87,-1.98,0,0,1,24
24340,-7.87,-5.52,-1.92,0,0,1,24
24360,-7.73,-5.27,-1.89,0,0,1,24
24380,-7.62,-4.99,-1.75,0,0,1,24
24400,-8.2,-4.77,-2.26,0,0,1,24
24420,-8.93,-4.7,-3.0,0,0,1,24
24440,-9.0,-5.16,-2.78,0,0,1,24
24460,-8.16,-5.65,-1.67,0,0,1,24
24480,-7.7,-5.94,-1.81,0,0,1,24
24500,-7.86,-5.9,-2.44,0,0,1,24
24520,-8.36,-5.31,-2.86,0,0,1,24
24540,-8.7,-4.58,-3.03,0,0,1,24
24560,-8.56,-4.28,-2.85,0,0,1,24
24580,-8.46,-4.09,-2.68,0,0,1,24
24600,-8.56,-3.98,-2.77,0,0,1,24
24620,-8.38,-3.62,-2.93,0,0,1,24
24640,-8.56,-3.44,-2.87,0,0,1,24
24660,-8.49,-3.2,-2.76,0,0,1,24
24680,-8.28,-3.01,-2.61,0,0,1,24
24700,-8.32,-2.88,-2.79,0,0,1,24
24720,-8.5,-2.87,-3.23,0,0,1,24
24740,-8.73,-3.15,-3.28,0,0,1,24
24760,-8.23,-2.93,-2.96,0,0,1,24
24780,-8.27,-2.6,-2.7,0,0,1,24
24800,-8.41,-2.29,-3.12,0,0,1,24
24820,-8.89,-2.14,-3.29,0,0,1,24
24840,-8.76,-1.69,-3.45,0,0,1,24
24860,-8.76,-1.34,-3.53,0,0,1,24
24880,-8.96,-1.21,-3.65,0,0,1,24
24900,-9.41,-1.36,-3.64,0,0,1,24
24920,-9.29,-0.86,-3.61,0,0,1,24
24940,-8.86,-0.71,-3.4,0,0,1,24
24960,-8.57,-0.33,-2.98,0,0,1,24
24980,-8.23,0.07,-2.8,0,0,1,24
24000,-7.25,-4.37,-1.32,0,0,1,25
24020,-7.92,-4.57,-1.65,0,0,1,25
24040,-8.12,-5.08,-2.18,0,0,1,25
24060,-8.11,-5.8,-2.2,0,0,1,25
24080,-7.96,-6.16,-2.28,0,0,1,25
24100,-7.96,-5.73,-2.13,0,0,1,25
24120,-7.83,-4.98,-1.9,0,0,1,25
24140,-7.54,-4.87,-1.63,0,0,1,25
24160,-7.83,-5.5,-1.5,0,0,1,25
24180,-8.19,-5.78,-2.06,0,0,1,25
24200,-8.35,-5.87,-2.34,0,0,1,25
24220,-8.23,-6.0,-2.0,0,0,1,25
24240,-8.12,-5.93,-1.7,0,0,1,25
24260,-8.23,-5.64,-1.86,0,0,1,25
24280,-8.25,-5.74,-2.05,0,0,1,25
24300,-8.21,-5.98,-2.13,0,0,1,25
24320,-7.94,-5.87,-1.98,0,0,1,25
24340,-7.87,-5.52,-1.92,0,0,1,25
24360,-7.73,-5.27,-1.89,0,0,1,25
24380,-7.62,-4.99,-1.75,0,0,1,25
24400,-8.2,-4.77,-2.26,0,0,1,25
24420,-8.93,-4.7,-3.0,0,0,1,25
24440,-9.0,-5.16,-2.78,0,0,1,25
24460,-8.16,-5.65,-1.67,0,0,1,25
24480,-7.7,-5.94,-1.81,0,0,1,25
24500,-7.86,-5.9,-2.44,0,0,1,25
24520,-8.36,-5.31,-2.86,0,0,1,25
24540,-8.7,-4.58,-3.03,0,0,1,25
24560,-8.56,-4.28,-2.85,0,0,1,25
24580,-8.46,-4.09,-2.68,0,0,1,25
24600,-8.56,-3.98,-2.77,0,0,1,25
24620,-8.38,-3.62,-2.93,0,0,1,25
24640,-8.56,-3.44,-2.87,0,0,1,25
24660,-8.49,-3.2,-2.76,0,0,1,25
24680,-8.28,-3.01,-2.61,0,0,1,25
24700,-8.32,-2.88,-2.79,0,0,1,25
24720,-8.5,-2.87,-3.23,0,0,1,25
24740,-8.73,-3.15,-3.28,0,0,1,25
24760,-8.23,-2.93,-2.96,0,0,1,25
24780,-8.27,-2.6,-2.7,0,0,1,25
24800,-8.41,-2.29,-3.12,0,0,1,25
24820,-8.89,-2.14,-3.29,0,0,1,25
24840,-8.76,-1.69,-3.45,0,0,1,25
24860,-8.76,-1.34,-3.53,0,0,1,25
24880,-8.96,-1.21,-3.65,0,0,1,25
24900,-9.41,-1.36,-3.64,0,0,1,25
24920,-9.29,-0.86,-3.61,0,0,1,25
24940,-8.86,-0.71,-3.4,0,0,1,25
24960,-8.57,-0.33,-2.98,0,0,1,25
24980,-8.23,0.07,-2.8,0,0,1,25
25000,-8.95,0.18,-3.19,0,0,1,25
25020,-8.63,0.86,-3.43,0,0,1,25
25040,-8.67,0.81,-3.08,0,0,1,25
25060,-8.55,0.78,-2.8,0,0,1,25
25080,-8.2,1.08,-2.76,0,0,1,25
25100,-8.34,1.25,-3.04,0,0,1,25
25120,-9.22,1.6,-3.56,0,0,1,25
25140,-9.73,1.88,-3.78,0,0,1,25
25160,-9.53,1.59,-3.7,0,0,1,25
25180,-9.05,1.09,-3.38,0,0,1,25
25200,-8.64,0.69,-3.24,0,0,1,25
25220,-8.38,0.58,-3.08,0,0,1,25
25240,-8.64,0.86,-3.16,0,0,1,25
25260,-8.72,1.38,-3.59,0,0,1,25
25280,-8.77,1.52,-3.81,0,0,1,25
25300,-8.65,1.61,-3.87,0,0,1,25
25320,-8.17,1.91,-3.45,0,0,1,25
25340,-7.97,1.9,-3.27,0,0,1,25
25360,-8.2,1.96,-3.42,0,0,1,25
25380,-8.5,2.39,-3.55,0,0,1,25
25400,-8.47,2.92,-3.9,0,0,1,25
25420,-8.73,3.21,-3.61,0,0,1,25
25440,-8.29,3.74,-3.82,0,0,1,25
25460,-7.92,3.92,-3.39,0,0,1,25
25480,-11.62,2.18,-4.67,0,0,1,25
25500,-14.04,1.43,-8.36,0,0,1,25
25520,-10.95,0.16,-7.95,0,0,1,25
25540,-9.16,0.02,-4.02,0,0,1,25
25560,-7.98,1.47,-1.33,0,0,1,25
25580,-8.42,3.45,-1.55,0,0,1,25
25600,-8.84,3.09,-3.59,0,0,1,25
25620,-8.91,0.32,-4.86,0,0,1,25
25640,-8.6,-0.8,-5.24,0,0,1,25
25660,-8.74,-0.48,-5.32,0,0,1,25
25680,-7.99,0.46,-4.18,0,0,1,25
25700,-7.16,0.46,-3.68,0,0,1,25
25720,-7.01,-0.14,-4.03,0,0,1,25
25740,-7.97,-0.15,-4.82,0,0,1,25
25760,-8.67,0.27,-5.35,0,0,1,25
25780,-8.45,0.68,-5.11,0,0,1,25
25800,-8.16,1.55,-4.92,0,0,1,25
25820,-8.7,2.08,-5.26,0,0,1,25
25840,-8.48,2.46,-5.64,0,0,1,25
25860,-8.5,2.34,-5.82,0,0,1,25
25880,-8.08,1.87,-5.5,0,0,1,25
25900,-7.92,1.59,-5.14,0,0,1,25
25920,-7.51,1.74,-4.86,0,0,1,25
25940,-7.67,2.14,-4.77,0,0,1,25
25960,-7.7,2.44,-5.0,0,0,1,25
25980,-7.74,2.45,-4.96,0,0,1,25
25000,-8.95,0.18,-3.19,0,0,1,26
25020,-8.63,0.86,-3.43,0,0,1,26
25040,-8.67,0.81,-3.08,0,0,1,26
25060,-8.55,0.78,-2.8,0,0,1,26
25080,-8.2,1.08,-2.76,0,0,1,26
25100,-8.34,1.25,-3.04,0,0,1,26
25120,-9.22,1.6,-3.56,0,0,1,26
25140,-9.73,1.88,-3.78,0,0,1,26
25160,-9.53,1.59,-3.7,0,0,1,26
25180,-9.05,1.09,-3.38,0,0,1,26
25200,-8.64,0.69,-3.24,0,0,1,26
25220,-8.38,0.58,-3.08,0,0,1,26
25240,-8.64,0.86,-3.16,0,0,1,26
25260,-8.72,1.38,-3.59,0,0,1,26
25280,-8.77,1.52,-3.81,0,0,1,26
25300,-8.65,1.61,-3.87,0,0,1,26
25320,-8.17,1.91,-3.45,0,0,1,26
25340,-7.97,1.9,-3.27,0,0,1,26
25360,-8.2,1.96,-3.42,0,0,1,26
25380,-8.5,2.39,-3.55,0,0,1,26
25400,-8.47,2.92,-3.9,0,0,1,26
25420,-8.73,3.21,-3.61,0,0,1,26
25440,-8.29,3.74,-3.82,0,0,1,26
25460,-7.92,3.92,-3.39,0,0,1,26
25480,-11.62,2.18,-4.67,0,0,1,26
25500,-14.04,1.43,-8.36,0,0,1,26
25520,-10.95,0.16,-7.95,0,0,1,26
25540,-9.16,0.02,-4.02,0,0,1,26
25560,-7.98,1.47,-1.33,0,0,1,26
25580,-8.42,3.45,-1.55,0,0,1,26
25600,-8.84,3.09,-3.59,0,0,1,26
25620,-8.91,0.32,-4.86,0,0,1,26
25640,-8.6,-0.8,-5.24,0,0,1,26
25660,-8.74,-0.48,-5.32,0,0,1,26
25680,-7.99,0.46,-4.18,0,0,1,26
25700,-7.16,0.46,-3.68,0,0,1,26
25720,-7.01,-0.14,-4.03,0,0,1,26
25740,-7.97,-0.15,-4.82,0,0,1,26
25760,-8.67,0.27,-5.35,0,0,1,26
25780,-8.45,0.68,-5.11,0,0,1,26
25800,-8.16,1.55,-4.92,0,0,1,26
25820,-8.7,2.08,-5.26,0,0,1,26
25840,-8.48,2.46,-5.64,0,0,1,26
25860,-8.5,2.34,-5.82,0,0,1,26
25880,-8.08,1.87,-5.5,0,0,1,26
25900,-7.92,1.59,-5.14,0,0,1,26
25920,-7.51,1.74,-4.86,0,0,1,26
25940,-7.67,2.14,-4.77,0,0,1,26
25960,-7.7,2.44,-5.0,0,0,1,26
25980,-7.74,2.45,-4.96,0,0,1,26
26000,-7.2,2.25,-4.92,0,0,1,26
26020,-7.11,1.94,-4.98,0,0,1,26
26040,-7.3,1.68,-5.36,0,0,1,26
26060,-7.98,1.42,-5.66,0,0,1,26
26080,-7.95,1.61,-5.47,0,0,1,26
26100,-8.31,1.89,-5.58,0,0,1,26
26120,-7.65,2.67,-5.6,0,0,1,26
26140,-7.02,2.82,-5.69,0,0,1,26
26160,-9.37,2.27,-4.56,0,0,1,26
26180,-8.53,3.08,-4.07,0,0,1,26
26200,-9.06,3.54,-5.42,0,0,1,26
26220,-10.22,3.96,-7.42,0,0,1,26
26240,-10.4,3.38,-9.44,0,0,1,26
26260,-11.01,2.09,-10.39,0,0,1,26
26280,-10.14,1.92,-8.14,0,0,1,26
26300,-7.91,1.74,-3.01,0,0,1,26
26320,-5.31,-3.21,-1.42,0,0,1,26
26340,-6.77,-3.03,-3.57,0,0,1,26
26360,-7.2,0.8,-3.29,0,0,1,26
26380,-7.47,1.1,-0.97,0,0,1,26
26400,-7.52,-0.06,-1.9,0,0,1,26
26420,-7.88,-1.97,-2.8,0,0,1,26
26440,-9.87,-1.17,-5.38,0,0,1,26
26460,-12.0,2.91,-6.74,0,0,1,26
26480,-11.86,5.68,-6.77,0,0,1,26
26500,-10.39,5.49,-5.75,0,0,1,26
26520,-9.14,4.08,-4.58,0,0,1,26
26540,-7.35,2.59,-3.06,0,0,1,26
26560,-6.94,1.61,-2.4,0,0,1,26
26580,-7.05,1.72,-2.93,0,0,1,26
26600,-7.16,2.18,-3.59,0,0,1,26
26620,-7.29,2.67,-3.88,0,0,1,26
26640,-7.11,2.91,-3.8,0,0,1,26
26660,-6.94,2.91,-3.91,0,0,1,26
26680,-7.19,2.76,-4.14,0,0,1,26
26700,-8.69,2.64,-4.13,0,0,1,26
26720,-8.1,3.15,-4.47,0,0,1,26
26740,-7.83,3.75,-4.42,0,0,1,26
26760,-7.63,4.27,-4.39,0,0,1,26
26780,-7.62,4.68,-4.32,0,0,1,26
26800,-8.23,4.89,-4.33,0,0,1,26
26820,-8.75,5.43,-4.69,0,0,1,26
26840,-8.29,5.76,-4.8,0,0,1,26
26860,-10.2,3.78,-4.22,0,0,1,26
26880,-11.04,2.75,-6.34,0,0,1,26
26900,-11.45,0.41,-8.05,0,0,1,26
26920,-10.07,-1.94,-5.55,0,0,1,26
26940,-8.49,-1.95,-3.04,0,0,1,26
26960,-7.75,1.45,-1.96,0,0,1,26
26980,-7.85,3.32,-2.9,0,0,1,26
26000,-7.2,2.25,-4.92,0,0,1,27
26020,-7.11,1.94,-4.98,0,0,1,27
26040,-7.3,1.68,-5.36,0,0,1,27
26060,-7.98,1.42,-5.66,0,0,1,27
26080,-7.95,1.61,-5.47,0,0,1,27
26100,-8.31,1.89,-5.58,0,0,1,27
26120,-7.65,2.67,-5.6,0,0,1,27
26140,-7.02,2.82,-5.69,0,0,1,27
26160,-9.37,2.27,-4.56,0,0,1,27
26180,-8.53,3.08,-4.07,0,0,1,27
26200,-9.06,3.54,-5.42,0,0,1,27
26220,-10.22,3.96,-7.42,0,0,1,27
26240,-10.4,3.38,-9.44,0,0,1,27
26260,-11.01,2.09,-10.39,0,0,1,27
26280,-10.14,1.92,-8.14,0,0,1,27
26300,-7.91,1.74,-3.01,0,0,1,27
26320,-5.31,-3.21,-1.42,0,0,1,27
26340,-6.77,-3.03,-3.57,0,0,1,27
26360,-7.2,0.8,-3.29,0,0,1,27
26380,-7.47,1.1,-0.97,0,0,1,27
26400,-7.52,-0.06,-1.9,0,0,1,27
26420,-7.88,-1.97,-2.8,0,0,1,27
26440,-9.87,-1.17,-5.38,0,0,1,27
26460,-12.0,2.91,-6.74,0,0,1,27
26480,-11.86,5.68,-6.77,0,0,1,27
26500,-10.39,5.49,-5.75,0,0,1,27
26520,-9.14,4.08,-4.58,0,0,1,27
26540,-7.35,2.59,-3.06,0,0,1,27
26560,-6.94,1.61,-2.4,0,0,1,27
26580,-7.05,1.72,-2.93,0,0,1,27
26600,-7.16,2.18,-3.59,0,0,1,27
26620,-7.29,2.67,-3.88,0,0,1,27
26640,-7.11,2.91,-3.8,0,0,1,27
26660,-6.94,2.91,-3.91,0,0,1,27
26680,-7.19,2.76,-4.14,0,0,1,27
26700,-8.69,2.64,-4.13,0,0,1,27
26720,-8.1,3.15,-4.47,0,0,1,27
26740,-7.83,3.75,-4.42,0,0,1,27
26760,-7.63,4.27,-4.39,0,0,1,27
26780,-7.62,4.68,-4.32,0,0,1,27
26800,-8.23,4.89,-4.33,0,0,1,27
26820,-8.75,5.43,-4.69,0,0,1,27
26840,-8.29,5.76,-4.8,0,0,1,27
26860,-10.2,3.78,-4.22,0,0,1,27
26880,-11.04,2.75,-6.34,0,0,1,27
26900,-11.45,0.41,-8.05,0,0,1,27
26920,-10.07,-1.94,-5.55,0,0,1,27
26940,-8.49,-1.95,-3.04,0,0,1,27
26960,-7.75,1.45,-1.96,0,0,1,27
26980,-7.85,3.32,-2.9,0,0,1,27
27000,-8.19,1.4,-4.39,0,0,1,27
27020,-9.05,-0.58,-5.33,0,0,1,27
27040,-8.64,-0.9,-5.96,0,0,1,27
27060,-8.01,-0.06,-4.39,0,0,1,27
27080,-7.85,0.91,-3.15,0,0,1,27
27100,-7.47,1.84,-4.05,0,0,1,27
27120,-7.82,2.0,-5.17,0,0,1,27
27140,-8.69,1.6,-5.44,0,0,1,27
27160,-8.8,1.21,-4.81,0,0,1,27
27180,-8.25,1.13,-4.3,0,0,1,27
27200,-7.76,1.38,-4.67,0,0,1,27
27220,-7.96,1.5,-5.26,0,0,1,27
27240,-8.36,1.56,-5.35,0,0,1,27
27260,-7.87,1.6,-5.51,0,0,1,27
27280,-7.97,1.6,-5.43,0,0,1,27
27300,-7.99,1.89,-5.19,0,0,1,27
27320,-7.71,2.16,-5.08,0,0,1,27
27340,-7.81,2.51,-5.16,0,0,1,27
27360,-7.86,3.07,-5.27,0,0,1,27
27380,-7.73,3.22,-5.25,0,0,1,27
27400,-7.7,2.72,-4.77,0,0,1,27
27420,-7.51,1.74,-4.65,0,0,1,27
27440,-7.92,0.66,-4.45,0,0,1,27
27460,-7.6,0.81,-4.53,0,0,1,27
27480,-8.17,1.63,-4.82,0,0,1,27
27500,-8.24,2.28,-5.08,0,0,1,27
27520,-7.31,1.14,-6.32,0,0,1,27
27540,-8.13,0.6,-4.34,0,0,1,27
27560,-7.81,2.13,-4.31,0,0,1,27
27580,-10.2,4.29,-5.06,0,0,1,27
27600,-11.88,5.43,-6.96,0,0,1,27
27620,-12.16,3.36,-9.64,0,0,1,27
27640,-11.79,-0.21,-10.45,0,0,1,27
27660,-10.04,-1.74,-7.62,0,0,1,27
27680,-6.74,-2.52,-0.9,0,0,1,27
27700,-4.14,-2.94,1.0,0,0,1,27
27720,-4.63,-2.36,-0.63,0,0,1,27
27740,-5.91,-0.87,-2.06,0,0,1,27
27760,-7.83,1.53,-3.71,0,0,1,27
27780,-10.57,3.89,-5.77,0,0,1,27
27800,-12.21,5.03,-7.47,0,0,1,27
27820,-11.77,4.44,-7.75,0,0,1,27
27840,-9.35,3.65,-5.39,0,0,1,27
27860,-7.68,3.37,-2.42,0,0,1,27
27880,-7.2,2.76,-1.63,0,0,1,27
27900,-8.23,2.11,-3.59,0,0,1,27
27920,-8.63,1.83,-4.85,0,0,1,27
27940,-8.66,1.9,-4.74,0,0,1,27
27960,-7.97,1.67,-3.77,0,0,1,27
27980,-6.25,1.6,-3.0,0,0,1,27
27000,-8.19,1.4,-4.39,0,0,1,28
27020,-9.05,-0.58,-5.33,0,0,1,28
27040,-8.64,-0.9,-5.96,0,0,1,28
27060,-8.01,-0.06,-4.39,0,0,1,28
27080,-7.85,0.91,-3.15,0,0,1,28
27100,-7.47,1.84,-4.05,0,0,1,28
27120,-7.82,2.0,-5.17,0,0,1,28
27140,-8.69,1.6,-5.44,0,0,1,28
27160,-8.8,1.21,-4.81,0,0,1,28
27180,-8.25,1.13,-4.3,0,0,1,28
27200,-7.76,1.38,-4.67,0,0,1,28
27220,-7.96,1.5,-5.26,0,0,1,28
27240,-8.36,1.56,-5.35,0,0,1,28
27260,-7.87,1.6,-5.51,0,0,1,28
27280,-7.97,1.6,-5.43,0,0,1,28
27300,-7.99,1.89,-5.19,0,0,1,28
27320,-7.71,2.16,-5.08,0,0,1,28
27340,-7.81,2.51,-5.16,0,0,1,28
27360,-7.86,3.07,-5.27,0,0,1,28
27380,-7.73,3.22,-5.25,0,0,1,28
27400,-7.7,2.72,-4.77,0,0,1,28
27420,-7.51,1.74,-4.65,0,0,1,28
27440,-7.92,0.66,-4.45,0,0,1,28
27460,-7.6,0.81,-4.53,0,0,1,28
27480,-8.17,1.63,-4.82,0,0,1,28
27500,-8.24,2.28,-5.08,0,0,1,28
27520,-7.31,1.14,-6.32,0,0,1,28
27540,-8.13,0.6,-4.34,0,0,1,28
27560,-7.81,2.13,-4.31,0,0,1,28
27580,-10.2,4.29,-5.06,0,0,1,28
27600,-11.88,5.43,-6.96,0,0,1,28
27620,-12.16,3.36,-9.64,0,0,1,28
27640,-11.79,-0.21,-10.45,0,0,1,28
27660,-10.04,-1.74,-7.62,0,0,1,28
27680,-6.74,-2.52,-0.9,0,0,1,28
27700,-4.14,-2.94,1.0,0,0,1,28
27720,-4.63,-2.36,-0.63,0,0,1,28
27740,-5.91,-0.87,-2.06,0,0,1,28
27760,-7.83,1.53,-3.71,0,0,1,28
27780,-10.57,3.89,-5.77,0,0,1,28
27800,-12.21,5.03,-7.47,0,0,1,28
27820,-11.77,4.44,-7.75,0,0,1,28
27840,-9.35,3.65,-5.39,0,0,1,28
27860,-7.68,3.37,-2.42,0,0,1,28
27880,-7.2,2.76,-1.63,0,0,1,28
27900,-8.23,2.11,-3.59,0,0,1,28
27920,-8.63,1.83,-4.85,0,0,1,28
27940,-8.66,1.9,-4.74,0,0,1,28
27960,-7.97,1.67,-3.77,0,0,1,28
27980,-6.25,1.6,-3.0,0,0,1,28
28000,-6.72,1.09,-3.25,0,0,1,28
28020,-6.68,1.78,-4.01,0,0,1,28
28040,-7.51,2.38,-4.78,0,0,1,28
28060,-8.01,2.81,-5.13,0,0,1,28
28080,-8.28,2.94,-4.76,0,0,1,28
28100,-8.38,2.71,-4.27,0,0,1,28
28120,-8.05,2.8,-4.31,0,0,1,28
28140,-8.05,2.99,-4.75,0,0,1,28
28160,-8.47,3.52,-4.89,0,0,1,28
28180,-8.29,4.11,-5.0,0,0,1,28
28200,-7.61,4.19,-4.6,0,0,1,28
28220,-10.67,2.01,-4.28,0,0,1,28
28240,-10.56,1.73,-8.16,0,0,1,28
28260,-12.36,-0.41,-8.56,0,0,1,28
28280,-10.79,-0.76,-7.43,0,0,1,28
28300,-7.87,0.37,-3.54,0,0,1,28
28320,-6.75,2.13,-1.44,0,0,1,28
28340,-6.48,3.82,-2.59,0,0,1,28
28360,-7.05,2.46,-3.48,0,0,1,28
28380,-9.22,-0.39,-5.34,0,0,1,28
28400,-9.16,-2.09,-6.41,0,0,1,28
28420,-8.12,-2.43,-5.94,0,0,1,28
28440,-7.31,-2.17,-4.86,0,0,1,28
28460,-7.53,-1.01,-3.99,0,0,1,28
28480,-8.34,0.72,-4.51,0,0,1,28
28500,-8.71,1.41,-5.37,0,0,1,28
28520,-8.47,1.31,-6.0,0,0,1,28
28540,-8.58,0.75,-6.3,0,0,1,28
28560,-8.86,-0.02,-6.5,0,0,1,28
28580,-8.28,-0.54,-6.29,0,0,1,28
28600,-7.93,-0.51,-5.65,0,0,1,28
28620,-7.87,0.08,-4.98,0,0,1,28
28640,-7.77,0.8,-4.95,0,0,1,28
28660,-7.77,1.15,-5.25,0,0,1,28
28680,-7.58,1.33,-5.76,0,0,1,28
28700,-7.76,1.67,-6.22,0,0,1,28
28720,-7.85,1.95,-5.86,0,0,1,28
28740,-7.37,1.92,-5.53,0,0,1,28
28760,-9.13,1.12,-4.35,0,0,1,28
28780,-8.63,1.47,-0.97,0,0,1,28
28800,-7.68,1.89,-0.73,0,0,1,28
28820,-9.06,0.43,-4.56,0,0,1,28
28840,-10.22,-2.25,-7.7,0,0,1,28
28860,-9.93,-3.41,-7.37,0,0,1,28
28880,-9.87,-2.07,-6.26,0,0,1,28
28900,-10.27,0.41,-5.4,0,0,1,28
28920,-9.94,2.23,-3.9,0,0,1,28
28940,-8.98,1.7,-3.07,0,0,1,28
28960,-8.47,0.11,-3.35,0,0,1,28
28980,-7.57,-0.59,-3.64,0,0,1,28
28000,-6.72,1.09,-3.25,0,0,1,29
28020,-6.68,1.78,-4.01,0,0,1,29
28040,-7.51,2.38,-4.78,0,0,1,29
28060,-8.01,2.81,-5.13,0,0,1,29
28080,-8.28,2.94,-4.76,0,0,1,29
28100,-8.38,2.71,-4.27,0,0,1,29
28120,-8.05,2.8,-4.31,0,0,1,29
28140,-8.05,2.99,-4.75,0,0,1,29
28160,-8.47,3.52,-4.89,0,0,1,29
28180,-8.29,4.11,-5.0,0,0,1,29
28200,-7.61,4.19,-4.6,0,0,1,29
28220,-10.67,2.01,-4.28,0,0,1,29
28240,-10.56,1.73,-8.16,0,0,1,29
28260,-12.36,-0.41,-8.56,0,0,1,29
28280,-10.79,-0.76,-7.43,0,0,1,29
28300,-7.87,0.37,-3.54,0,0,1,29
28320,-6.75,2.13,-1.44,0,0,1,29
28340,-6.48,3.82,-2.59,0,0,1,29
28360,-7.05,2.46,-3.48,0,0,1,29
28380,-9.22,-0.39,-5.34,0,0,1,29
28400,-9.16,-2.09,-6.41,0,0,1,29
28420,-8.12,-2.43,-5.94,0,0,1,29
28440,-7.31,-2.17,-4.86,0,0,1,29
28460,-7.53,-1.01,-3.99,0,0,1,29
28480,-8.34,0.72,-4.51,0,0,1,29
28500,-8.71,1.41,-5.37,0,0,1,29
28520,-8.47,1.31,-6.0,0,0,1,29
28540,-8.58,0.75,-6.3,0,0,1,29
28560,-8.86,-0.02,-6.5,0,0,1,29
28580,-8.28,-0.54,-6.29,0,0,1,29
28600,-7.93,-0.51,-5.65,0,0,1,29
28620,-7.87,0.08,-4.98,0,0,1,29
28640,-7.77,0.8,-4.95,0,0,1,29
28660,-7.77,1.15,-5.25,0,0,1,29
28680,-7.58,1.33,-5.76,0,0,1,29
28700,-7.76,1.67,-6.22,0,0,1,29
28720,-7.85,1.95,-5.86,0,0,1,29
28740,-7.37,1.92,-5.53,0,0,1,29
28760,-9.13,1.12,-4.35,0,0,1,29
28780,-8.63,1.47,-0.97,0,0,1,29
28800,-7.68,1.89,-0.73,0,0,1,29
28820,-9.06,0.43,-4.56,0,0,1,29
28840,-10.22,-2.25,-7.7,0,0,1,29
28860,-9.93,-3.41,-7.37,0,0,1,29
28880,-9.87,-2.07,-6.26,0,0,1,29
28900,-10.27,0.41,-5.4,0,0,1,29
28920,-9.94,2.23,-3.9,0,0,1,29
28940,-8.98,1.7,-3.07,0,0,1,29
28960,-8.47,0.11,-3.35,0,0,1,29
28980,-7.57,-0.59,-3.64,0,0,1,29
29000,-6.77,-0.11,-3.57,0,0,1,29
29020,-6.56,1.3,-3.38,0,0,1,29
29040,-7.3,1.75,-3.2,0,0,1,29
29060,-8.72,1.75,-4.03,0,0,1,29
29080,-9.48,1.7,-5.2,0,0,1,29
29100,-9.79,1.27,-5.53,0,0,1,29
29120,-9.77,1.43,-5.05,0,0,1,29
29140,-8.91,1.62,-4.6,0,0,1,29
29160,-10.21,3.5,-5.31,0,0,1,29
29180,-9.36,2.41,-5.75,0,0,1,29
29200,-8.94,1.83,-5.31,0,0,1,29
29220,-9.09,1.95,-5.08,0,0,1,29
29240,-8.75,1.85,-4.7,0,0,1,29
29260,-8.8,1.7,-4.61,0,0,1,29
29280,-8.62,1.84,-4.62,0,0,1,29
29300,-8.16,2.09,-4.19,0,0,1,29
29320,-7.62,2.3,-3.57,0,0,1,29
29340,-7.6,2.38,-3.3,0,0,1,29
29360,-7.93,2.76,-3.51,0,0,1,29
29380,-7.93,3.42,-3.83,0,0,1,29
29400,-7.91,3.61,-3.8,0,0,1,29
29420,-7.78,3.38,-3.16,0,0,1,29
29440,-7.47,2.69,-2.66,0,0,1,29
29460,-7.38,1.84,-2.96,0,0,1,29
29480,-7.71,1.2,-3.83,0,0,1,29
29500,-8.49,0.94,-4.3,0,0,1,29
29520,-8.78,1.83,-5.01,0,0,1,29
29540,-11.02,3.21,-5.91,0,0,1,29
29560,-12.06,4.36,-7.76,0,0,1,29
29580,-9.42,2.88,-6.26,0,0,1,29
29600,-7.09,1.14,-2.47,0,0,1,29
29620,-6.17,0.85,-1.46,0,0,1,29
29640,-8.5,1.33,-3.43,0,0,1,29
29660,-9.46,1.31,-4.61,0,0,1,29
29680,-9.6,0.22,-4.32,0,0,1,29
29700,-7.88,-0.23,-4.1,0,0,1,29
29720,-7.21,1.31,-3.88,0,0,1,29
29740,-7.76,3.42,-5.61,0,0,1,29
29760,-8.31,3.81,-5.76,0,0,1,29
29780,-8.2,3.34,-6.04,0,0,1,29
29800,-7.75,2.37,-6.61,0,0,1,29
29820,-8.06,1.33,-6.2,0,0,1,29
29840,-7.95,0.54,-5.72,0,0,1,29
29860,-7.72,0.82,-5.87,0,0,1,29
29880,-7.85,1.26,-6.17,0,0,1,29
29900,-8.11,1.97,-6.34,0,0,1,29
29920,-8.09,2.65,-6.17,0,0,1,29
29940,-7.5,2.98,-5.65,0,0,1,29
29960,-7.29,3.29,-5.11,0,0,1,29
29980,-7.35,4.04,-5.15,0,0,1,29
29000,-6.77,-0.11,-3.57,0,0,1,30
29020,-6.56,1.3,-3.38,0,0,1,30
29040,-7.3,1.75,-3.2,0,0,1,30
29060,-8.72,1.75,-4.03,0,0,1,30
29080,-9.48,1.7,-5.2,0,0,1,30
29100,-9.79,1.27,-5.53,0,0,1,30
29120,-9.77,1.43,-5.05,0,0,1,30
29140,-8.91,1.62,-4.6,0,0,1,30
29160,-10.21,3.5,-5.31,0,0,1,30
29180,-9.36,2.41,-5.75,0,0,1,30
29200,-8.94,1.83,-5.31,0,0,1,30
29220,-9.09,1.95,-5.08,0,0,1,30
29240,-8.75,1.85,-4.7,0,0,1,30
29260,-8.8,1.7,-4.61,0,0,1,30
29280,-8.62,1.84,-4.62,0,0,1,30
29300,-8.16,2.09,-4.19,0,0,1,30
29320,-7.62,2.3,-3.57,0,0,1,30
29340,-7.6,2.38,-3.3,0,0,1,30
29360,-7.93,2.76,-3.51,0,0,1,30
29380,-7.93,3.42,-3.83,0,0,1,30
29400,-7.91,3.61,-3.8,0,0,1,30
29420,-7.78,3.38,-3.16,0,0,1,30
29440,-7.47,2.69,-2.66,0,0,1,30
29460,-7.38,1.84,-2.96,0,0,1,30
29480,-7.71,1.2,-3.83,0,0,1,30
29500,-8.49,0.94,-4.3,0,0,1,30
29520,-8.78,1.83,-5.01,0,0,1,30
29540,-11.02,3.21,-5.91,0,0,1,30
29560,-12.06,4.36,-7.76,0,0,1,30
29580,-9.42,2.88,-6.26,0,0,1,30
29600,-7.09,1.14,-2.47,0,0,1,30
29620,-6.17,0.85,-1.46,0,0,1,30
29640,-8.5,1.33,-3.43,0,0,1,30
29660,-9.46,1.31,-4.61,0,0,1,30
29680,-9.6,0.22,-4.32,0,0,1,30
29700,-7.88,-0.23,-4.1,0,0,1,30
29720,-7.21,1.31,-3.88,0,0,1,30
29740,-7.76,3.42,-5.61,0,0,1,30
29760,-8.31,3.81,-5.76,0,0,1,30
29780,-8.2,3.34,-6.04,0,0,1,30
29800,-7.75,2.37,-6.61,0,0,1,30
29820,-8.06,1.33,-6.2,0,0,1,30
29840,-7.95,0.54,-5.72,0,0,1,30
29860,-7.72,0.82,-5.87,0,0,1,30
29880,-7.85,1.26,-6.17,0,0,1,30
29900,-8.11,1.97,-6.34,0,0,1,30
29920,-8.09,2.65,-6.17,0,0,1,30
29940,-7.5,2.98,-5.65,0,0,1,30
29960,-7.29,3.29,-5.11,0,0,1,30
29980,-7.35,4.04,-5.15,0,0,1,30
30000,-7.65,4.56,-5.42,0,0,1,30
30020,-7.98,4.72,-5.52,0,0,1,30
30040,-8.27,4.47,-5.8,0,0,1,30
30060,-8.06,4.11,-5.58,0,0,1,30
30080,-8.04,3.34,-5.45,0,0,1,30
30100,-8.02,2.64,-5.27,0,0,1,30
30120,-7.63,2.29,-5.38,0,0,1,30
30140,-7.31,2.54,-5.48,0,0,1,30
30160,-7.42,3.01,-5.37,0,0,1,30
30180,-7.51,3.61,-5.4,0,0,1,30
30200,-7.52,4.05,-5.32,0,0,1,30
30220,-7.85,4.15,-5.28,0,0,1,30
30240,-7.72,4.15,-4.79,0,0,1,30
30260,-7.66,3.84,-4.47,0,0,1,30
30280,-7.77,3.91,-4.01,0,0,1,30
30300,-7.69,3.71,-4.29,0,0,1,30
30320,-7.48,3.86,-4.31,0,0,1,30
30340,-7.41,4.27,-4.35,0,0,1,30
30360,-7.36,4.65,-4.39,0,0,1,30
30380,-7.36,4.16,-5.12,0,0,1,30
30400,-9.7,2.82,-4.48,0,0,1,30
30420,-8.77,2.76,-1.44,0,0,1,30
30440,-8.38,3.85,-1.63,0,0,1,30
30460,-9.47,2.68,-4.23,0,0,1,30
30480,-10.36,0.3,-6.94,0,0,1,30
30500,-10.25,-1.7,-8.1,0,0,1,30
30520,-10.03,-1.18,-7.51,0,0,1,30
30540,-9.4,-0.07,-5.51,0,0,1,30
30560,-8.19,0.09,-3.33,0,0,1,30
30580,-7.07,0.22,-3.15,0,0,1,30
30600,-7.01,1.34,-3.3,0,0,1,30
30620,-7.67,2.21,-3.36,0,0,1,30
30640,-9.11,2.7,-4.03,0,0,1,30
30660,-10.1,2.97,-4.96,0,0,1,30
30680,-10.15,2.84,-5.35,0,0,1,30
30700,-8.83,2.65,-4.5,0,0,1,30
30720,-7.54,3.02,-3.26,0,0,1,30
30740,-6.98,3.28,-2.69,0,0,1,30
30760,-7.32,3.24,-2.84,0,0,1,30
30780,-7.89,3.33,-3.39,0,0,1,30
30800,-8.32,3.52,-3.44,0,0,1,30
30820,-8.15,3.32,-3.38,0,0,1,30
30840,-7.78,3.04,-3.22,0,0,1,30
30860,-7.65,3.23,-3.3,0,0,1,30
30880,-7.71,3.51,-3.67,0,0,1,30
30900,-7.32,3.56,-3.96,0,0,1,30
30920,-7.53,3.51,-3.88,0,0,1,30
30940,-7.94,3.77,-3.96,0,0,1,30
30960,-7.7,3.65,-4.31,0,0,1,30
30980,-7.63,3.73,-3.65,0,0,1,30
30000,-7.65,4.56,-5.42,0,0,1,31
30020,-7.98,4.72,-5.52,0,0,1,31
30040,-8.27,4.47,-5.8,0,0,1,31
30060,-8.06,4.11,-5.58,0,0,1,31
30080,-8.04,3.34,-5.45,0,0,1,31
30100,-8.02,2.64,-5.27,0,0,1,31
30120,-7.63,2.29,-5.38,0,0,1,31
30140,-7.31,2.54,-5.48,0,0,1,31
30160,-7.42,3.01,-5.37,0,0,1,31
30180,-7.51,3.61,-5.4,0,0,1,31
30200,-7.52,4.05,-5.32,0,0,1,31
30220,-7.85,4.15,-5.28,0,0,1,31
30240,-7.72,4.15,-4.79,0,0,1,31
30260,-7.66,3.84,-4.47,0,0,1,31
30280,-7.77,3.91,-4.01,0,0,1,31
30300,-7.69,3.71,-4.29,0,0,1,31
30320,-7.48,3.86,-4.31,0,0,1,31
30340,-7.41,4.27,-4.35,0,0,1,31
30360,-7.36,4.65,-4.39,0,0,1,31
30380,-7.36,4.16,-5.12,0,0,1,31
30400,-9.7,2.82,-4.48,0,0,1,31
30420,-8.77,2.76,-1.44,0,0,1,31
30440,-8.38,3.85,-1.63,0,0,1,31
30460,-9.47,2.68,-4.23,0,0,1,31
30480,-10.36,0.3,-6.94,0,0,1,31
30500,-10.25,-1.7,-8.1,0,0,1,31
30520,-10.03,-1.18,-7.51,0,0,1,31
30540,-9.4,-0.07,-5.51,0,0,1,31
30560,-8.19,0.09,-3.33,0,0,1,31
30580,-7.07,0.22,-3.15,0,0,1,31
30600,-7.01,1.34,-3.3,0,0,1,31
30620,-7.67,2.21,-3.36,0,0,1,31
30640,-9.11,2.7,-4.03,0,0,1,31
30660,-10.1,2.97,-4.96,0,0,1,31
30680,-10.15,2.84,-5.35,0,0,1,31
30700,-8.83,2.65,-4.5,0,0,1,31
30720,-7.54,3.02,-3.26,0,0,1,31
30740,-6.98,3.28,-2.69,0,0,1,31
30760,-7.32,3.24,-2.84,0,0,1,31
30780,-7.89,3.33,-3.39,0,0,1,31
30800,-8.32,3.52,-3.44,0,0,1,31
30820,-8.15,3.32,-3.38,0,0,1,31
30840,-7.78,3.04,-3.22,0,0,1,31
30860,-7.65,3.23,-3.3,0,0,1,31
30880,-7.71,3.51,-3.67,0,0,1,31
30900,-7.32,3.56,-3.96,0,0,1,31
30920,-7.53,3.51,-3.88,0,0,1,31
30940,-7.94,3.77,-3.96,0,0,1,31
30960,-7.7,3.65,-4.31,0,0,1,31
30980,-7.63,3.73,-3.65,0,0,1,31
31000,-7.85,4.06,-2.8,0,0,1,31
31020,-12.43,2.6,-3.33,0,0,1,31
31040,-13.62,1.86,-7.44,0,0,1,31
31060,-11.4,1.61,-8.44,0,0,1,31
31080,-8.83,0.65,-5.36,0,0,1,31
31100,-7.94,0.3,-2.46,0,0,1,31
31120,-8.49,2.15,-1.97,0,0,1,31
31140,-9.28,3.37,-2.4,0,0,1,31
31160,-9.85,2.0,-4.12,0,0,1,31
31180,-8.76,0.15,-5.58,0,0,1,31
31200,-8.16,-1.28,-6.03,0,0,1,31
31220,-7.65,-1.1,-5.57,0,0,1,31
31240,-7.25,-1.04,-4.93,0,0,1,31
31260,-7.52,-1.23,-4.98,0,0,1,31
31280,-7.63,-0.27,-4.62,0,0,1,31
31300,-7.62,1.83,-4.51,0,0,1,31
31320,-8.07,3.35,-5.45,0,0,1,31
31340,-9.1,2.95,-6.57,0,0,1,31
31360,-9.07,2.26,-6.58,0,0,1,31
31380,-8.51,1.44,-5.38,0,0,1,31
31400,-8.0,1.04,-4.46,0,0,1,31
31420,-7.96,0.91,-4.28,0,0,1,31
31440,-8.28,1.03,-4.72,0,0,1,31
31460,-8.49,1.35,-5.24,0,0,1,31
31480,-8.7,1.43,-5.43,0,0,1,31
31500,-8.59,1.29,-5.34,0,0,1,31
31520,-8.23,1.28,-4.72,0,0,1,31
31540,-8.1,1.18,-4.45,0,0,1,31
31560,-8.45,1.42,-4.83,0,0,1,31
31580,-8.77,1.56,-5.17,0,0,1,31
31600,-8.53,1.43,-5.01,0,0,1,31
31620,-8.47,1.39,-4.63,0,0,1,31
31640,-8.54,1.3,-4.36,0,0,1,31
31660,-8.65,0.85,-4.55,0,0,1,31
31680,-8.5,-0.06,-4.72,0,0,1,31
31700,-8.35,-0.73,-4.72,0,0,1,31
31720,-8.43,-0.85,-5.11,0,0,1,31
31740,-8.75,-0.97,-5.07,0,0,1,31
31760,-8.76,-0.92,-4.51,0,0,1,31
31780,-8.39,-0.96,-4.35,0,0,1,31
31800,-8.84,-1.27,-4.78,0,0,1,31
31820,-9.41,-2.67,-5.65,0,0,1,31
31840,-10.34,-3.53,-4.93,0,0,1,31
31860,-8.65,-2.3,-2.8,0,0,1,31
31880,-8.35,-0.56,-2.46,0,0,1,31
31900,-8.55,-0.03,-3.73,0,0,1,31
31920,-9.55,-1.7,-4.73,0,0,1,31
31940,-9.02,-3.33,-4.19,0,0,1,31
31960,-7.8,-2.84,-2.65,0,0,1,31
31980,-8.81,-0.92,-1.87,0,0,1,31
31000,-7.85,4.06,-2.8,0,0,1,32
31020,-12.43,2.6,-3.33,0,0,1,32
31040,-13.62,1.86,-7.44,0,0,1,32
31060,-11.4,1.61,-8.44,0,0,1,32
31080,-8.83,0.65,-5.36,0,0,1,32
31100,-7.94,0.3,-2.46,0,0,1,32
31120,-8.49,2.15,-1.97,0,0,1,32
31140,-9.28,3.37,-2.4,0,0,1,32
31160,-9.85,2.0,-4.12,0,0,1,32
31180,-8.76,0.15,-5.58,0,0,1,32
31200,-8.16,-1.28,-6.03,0,0,1,32
31220,-7.65,-1.1,-5.57,0,0,1,32
31240,-7.25,-1.04,-4.93,0,0,1,32
31260,-7.52,-1.23,-4.98,0,0,1,32
31280,-7.63,-0.27,-4.62,0,0,1,32
31300,-7.62,1.83,-4.51,0,0,1,32
31320,-8.07,3.35,-5.45,0,0,1,32
31340,-9.1,2.95,-6.57,0,0,1,32
31360,-9.07,2.26,-6.58,0,0,1,32
31380,-8.51,1.44,-5.38,0,0,1,32
31400,-8.0,1.04,-4.46,0,0,1,32
31420,-7.96,0.91,-4.28,0,0,1,32
31440,-8.28,1.03,-4.72,0,0,1,32
31460,-8.49,1.35,-5.24,0,0,1,32
31480,-8.7,1.43,-5.43,0,0,1,32
31500,-8.59,1.29,-5.34,0,0,1,32
31520,-8.23,1.28,-4.72,0,0,1,32
31540,-8.1,1.18,-4.45,0,0,1,32
31560,-8.45,1.42,-4.83,0,0,1,32
31580,-8.77,1.56,-5.17,0,0,1,32
31600,-8.53,1.43,-5.01,0,0,1,32
31620,-8.47,1.39,-4.63,0,0,1,32
31640,-8.54,1.3,-4.36,0,0,1,32
31660,-8.65,0.85,-4.55,0,0,1,32
31680,-8.5,-0.06,-4.72,0,0,1,32
31700,-8.35,-0.73,-4.72,0,0,1,32
31720,-8.43,-0.85,-5.11,0,0,1,32
31740,-8.75,-0.97,-5.07,0,0,1,32
31760,-8.76,-0.92,-4.51,0,0,1,32
31780,-8.39,-0.96,-4.35,0,0,1,32
31800,-8.84,-1.27,-4.78,0,0,1,32
31820,-9.41,-2.67,-5.65,0,0,1,32
31840,-10.34,-3.53,-4.93,0,0,1,32
31860,-8.65,-2.3,-2.8,0,0,1,32
31880,-8.35,-0.56,-2.46,0,0,1,32
31900,-8.55,-0.03,-3.73,0,0,1,32
31920,-9.55,-1.7,-4.73,0,0,1,32
31940,-9.02,-3.33,-4.19,0,0,1,32
31960,-7.8,-2.84,-2.65,0,0,1,32
31980,-8.81,-0.92,-1.87,0,0,1,32
32000,-9.56,1.05,-2.19,0,0,1,32
32020,-9.6,0.81,-2.45,0,0,1,32
32040,-9.17,-1.03,-1.96,0,0,1,32
32060,-8.14,-2.71,-2.01,0,0,1,32
32080,-9.27,-3.48,-2.56,0,0,1,32
32100,-10.38,-3.28,-4.08,0,0,1,32
32120,-10.11,-3.08,-3.73,0,0,1,32
32140,-8.86,-3.04,-2.34,0,0,1,32
32160,-8.33,-2.68,-1.65,0,0,1,32
32180,-8.98,-2.78,-1.76,0,0,1,32
32200,-9.47,-3.23,-2.38,0,0,1,32
32220,-8.87,-4.39,-2.64,0,0,1,32
32240,-8.32,-5.1,-2.49,0,0,1,32
32260,-7.83,-5.09,-2.54,0,0,1,32
32280,-7.24,-4.47,-0.81,0,0,1,32
32300,-9.04,-3.54,-1.69,0,0,1,32
32320,-9.29,-3.21,-1.17,0,0,1,32
32340,-9.17,-3.68,-1.16,0,0,1,32
32360,-8.68,-4.68,-1.09,0,0,1,32
32380,-7.84,-4.55,-0.74,0,0,1,32
32400,-8.03,-4.6,-0.59,0,0,1,32
32420,-7.77,-4.58,-0.34,0,0,1,32
32440,-7.63,-4.99,-0.52,0,0,1,32
32460,-7.16,-5.22,-0.21,0,0,1,32
32480,-7.36,-5.43,-0.1,0,0,1,32
32500,-7.14,-5.65,-0.1,0,0,1,32
32520,-6.77,-5.61,0.44,0,0,1,32
32540,-6.97,-5.68,0.64,0,0,1,32
32560,-6.93,-6.05,0.4,0,0,1,32
32580,-6.68,-6.26,0.18,0,0,1,32
32600,-6.68,-6.46,0.59,0,0,1,32
32620,-6.76,-6.39,0.39,0,0,1,32
32640,-6.24,-6.24,0.71,0,0,1,32
32660,-5.91,-5.96,1.51,0,0,1,32
32680,-5.93,-5.87,1.62,0,0,1,32
32700,-6.11,-5.69,1.36,0,0,1,32
32720,-6.71,-5.66,1.29,0,0,1,32
32740,-6.79,-5.86,1.45,0,0,1,32
32760,-6.83,-6.64,1.55,0,0,1,32
32780,-6.35,-6.97,1.67,0,0,1,32
32800,-6.21,-7.21,2.06,0,0,1,32
32820,-6.2,-7.46,2.41,0,0,1,32
32840,-6.47,-7.22,2.24,0,0,1,32
32860,-6.84,-6.9,1.9,0,0,1,32
32880,-6.87,-6.81,2.43,0,0,1,32
32900,-6.14,-6.97,2.74,0,0,1,32
32920,-6.16,-7.45,2.55,0,0,1,32
32940,-6.59,-7.57,2.21,0,0,1,32
32960,-6.92,-7.32,2.16,0,0,1,32
32980,-6.85,-7.33,2.27,0,0,1,32
32000,-9.56,1.05,-2.19,0,0,1,33
32020,-9.6,0.81,-2.45,0,0,1,33
32040,-9.17,-1.03,-1.96,0,0,1,33
32060,-8.14,-2.71,-2.01,0,0,1,33
32080,-9.27,-3.48,-2.56,0,0,1,33
32100,-10.38,-3.28,-4.08,0,0,1,33
32120,-10.11,-3.08,-3.73,0,0,1,33
32140,-8.86,-3.04,-2.34,0,0,1,33
32160,-8.33,-2.68,-1.65,0,0,1,33
32180,-8.98,-2.78,-1.76,0,0,1,33
32200,-9.47,-3.23,-2.38,0,0,1,33
32220,-8.87,-4.39,-2.64,0,0,1,33
32240,-8.32,-5.1,-2.49,0,0,1,33
32260,-7.83,-5.09,-2.54,0,0,1,33
32280,-7.24,-4.47,-0.81,0,0,1,33
32300,-9.04,-3.54,-1.69,0,0,1,33
32320,-9.29,-3.21,-1.17,0,0,1,33
32340,-9.17,-3.68,-1.16,0,0,1,33
32360,-8.68,-4.68,-1.09,0,0,1,33
32380,-7.84,-4.55,-0.74,0,0,1,33
32400,-8.03,-4.6,-0.59,0,0,1,33
32420,-7.77,-4.58,-0.34,0,0,1,33
32440,-7.63,-4.99,-0.52,0,0,1,33
32460,-7.16,-5.22,-0.21,0,0,1,33
32480,-7.36,-5.43,-0.1,0,0,1,33
32500,-7.14,-5.65,-0.1,0,0,1,33
32520,-6.77,-5.61,0.44,0,0,1,33
32540,-6.97,-5.68,0.64,0,0,1,33
32560,-6.93,-6.05,0.4,0,0,1,33
32580,-6.68,-6.26,0.18,0,0,1,33
32600,-6.68,-6.46,0.59,0,0,1,33
32620,-6.76,-6.39,0.39,0,0,1,33
32640,-6.24,-6.24,0.71,0,0,1,33
32660,-5.91,-5.96,1.51,0,0,1,33
32680,-5.93,-5.87,1.62,0,0,1,33
32700,-6.11,-5.69,1.36,0,0,1,33
32720,-6.71,-5.66,1.29,0,0,1,33
32740,-6.79,-5.86,1.45,0,0,1,33
32760,-6.83,-6.64,1.55,0,0,1,33
32780,-6.35,-6.97,1.67,0,0,1,33
32800,-6.21,-7.21,2.06,0,0,1,33
32820,-6.2,-7.46,2.41,0,0,1,33
32840,-6.47,-7.22,2.24,0,0,1,33
32860,-6.84,-6.9,1.9,0,0,1,33
32880,-6.87,-6.81,2.43,0,0,1,33
32900,-6.14,-6.97,2.74,0,0,1,33
32920,-6.16,-7.45,2.55,0,0,1,33
32940,-6.59,-7.57,2.21,0,0,1,33
32960,-6.92,-7.32,2.16,0,0,1,33
32980,-6.85,-7.33,2.27,0,0,1,33
33000,-6.3,-7.72,2.82,0,0,1,33
33020,-6.4,-7.81,2.58,0,0,1,33
33040,-6.67,-7.28,2.09,0,0,1,33
33060,-6.79,-7.25,2.02,0,0,1,33
33080,-6.52,-7.63,1.86,0,0,1,33
33100,-6.26,-7.69,2.08,0,0,1,33
33120,-6.39,-7.46,2.26,0,0,1,33
33140,-6.76,-7.3,1.79,0,0,1,33
33160,-6.72,-7.33,1.68,0,0,1,33
33180,-6.41,-7.29,2.15,0,0,1,33
33200,-6.46,-6.94,1.9,0,0,1,33
33220,-6.66,-6.6,1.44,0,0,1,33
33240,-6.75,-6.5,1.62,0,0,1,33
33260,-6.56,-6.55,1.87,0,0,1,33
33280,-6.85,-6.91,1.7,0,0,1,33
33300,-6.84,-6.66,1.28,0,0,1,33
33320,-6.86,-6.57,1.33,0,0,1,33
33340,-6.77,-6.43,1.21,0,0,1,33
33360,-6.98,-6.31,1.14,0,0,1,33
33380,-6.99,-6.41,0.89,0,0,1,33
33400,-7.21,-5.99,0.52,0,0,1,33
33420,-6.97,-5.89,0.96,0,0,1,33
33440,-6.73,-5.75,1.08,0,0,1,33
33460,-7.0,-5.59,1.02,0,0,1,33
33480,-6.96,-5.48,0.55,0,0,1,33
33500,-7.55,-4.82,0.38,0,0,1,33
33520,-8.0,-4.39,0.48,0,0,1,33
33540,-8.2,-4.63,0.3,0,0,1,33
33560,-7.9,-4.62,-0.45,0,0,1,33
33580,-8.43,-4.46,-0.13,0,0,1,33
33600,-8.4,-4.27,-0.2,0,0,1,33
33620,-8.34,-3.95,-0.32,0,0,1,33
33640,-8.72,-3.6,-0.17,0,0,1,33
33660,-8.6,-3.26,-0.66,0,0,1,33
33680,-8.54,-3.53,-0.41,0,0,1,33
33700,-8.53,-3.46,-0.87,0,0,1,33
33720,-8.67,-3.3,-0.9,0,0,1,33
33740,-8.55,-2.54,-0.27,0,0,1,33
33760,-8.7,-1.71,-0.3,0,0,1,33
33780,-9.27,-0.97,-1.71,0,0,1,33
33800,-9.76,-0.73,-2.01,0,0,1,33
33820,-9.32,-0.69,-1.68,0,0,1,33
33840,-8.71,-0.43,-1.18,0,0,1,33
33860,-8.35,-0.23,-1.18,0,0,1,33
33880,-8.69,0.19,-1.97,0,0,1,33
33900,-9.38,0.81,-2.29,0,0,1,33
33920,-9.27,1.09,-2.16,0,0,1,33
33940,-9.23,1.66,-2.44,0,0,1,33
33960,-9.2,1.55,-2.69,0,0,1,33
33980,-9.41,1.32,-3.06,0,0,1,33
33000,-6.3,-7.72,2.82,0,0,1,34
33020,-6.4,-7.81,2.58,0,0,1,34
33040,-6.67,-7.28,2.09,0,0,1,34
33060,-6.79,-7.25,2.02,0,0,1,34
33080,-6.52,-7.63,1.86,0,0,1,34
33100,-6.26,-7.69,2.08,0,0,1,34
33120,-6.39,-7.46,2.26,0,0,1,34
33140,-6.76,-7.3,1.79,0,0,1,34
33160,-6.72,-7.33,1.68,0,0,1,34
33180,-6.41,-7.29,2.15,0,0,1,34
33200,-6.46,-6.94,1.9,0,0,1,34
33220,-6.66,-6.6,1.44,0,0,1,34
33240,-6.75,-6.5,1.62,0,0,1,34
33260,-6.56,-6.55,1.87,0,0,1,34
33280,-6.85,-6.91,1.7,0,0,1,34
33300,-6.84,-6.66,1.28,0,0,1,34
33320,-6.86,-6.57,1.33,0,0,1,34
33340,-6.77,-6.43,1.21,0,0,1,34
33360,-6.98,-6.31,1.14,0,0,1,34
33380,-6.99,-6.41,0.89,0,0,1,34
33400,-7.21,-5.99,0.52,0,0,1,34
33420,-6.97,-5.89,0.96,0,0,1,34
33440,-6.73,-5.75,1.08,0,0,1,34
33460,-7.0,-5.59,1.02,0,0,1,34
33480,-6.96,-5.48,0.55,0,0,1,34
33500,-7.55,-4.82,0.38,0,0,1,34
33520,-8.0,-4.39,0.48,0,0,1,34
33540,-8.2,-4.63,0.3,0,0,1,34
33560,-7.9,-4.62,-0.45,0,0,1,34
33580,-8.43,-4.46,-0.13,0,0,1,34
33600,-8.4,-4.27,-0.2,0,0,1,34
33620,-8.34,-3.95,-0.32,0,0,1,34
33640,-8.72,-3.6,-0.17,0,0,1,34
33660,-8.6,-3.26,-0.66,0,0,1,34
33680,-8.54,-3.53,-0.41,0,0,1,34
33700,-8.53,-3.46,-0.87,0,0,1,34
33720,-8.67,-3.3,-0.9,0,0,1,34
33740,-8.55,-2.54,-0.27,0,0,1,34
33760,-8.7,-1.71,-0.3,0,0,1,34
33780,-9.27,-0.97,-1.71,0,0,1,34
33800,-9.76,-0.73,-2.01,0,0,1,34
33820,-9.32,-0.69,-1.68,0,0,1,34
33840,-8.71,-0.43,-1.18,0,0,1,34
33860,-8.35,-0.23,-1.18,0,0,1,34
33880,-8.69,0.19,-1.97,0,0,1,34
33900,-9.38,0.81,-2.29,0,0,1,34
33920,-9.27,1.09,-2.16,0,0,1,34
33940,-9.23,1.66,-2.44,0,0,1,34
33960,-9.2,1.55,-2.69,0,0,1,34
33980,-9.41,1.32,-3.06,0,0,1,34
34000,-9.47,1.9,-3.16,0,0,1,34
34020,-9.51,2.38,-3.37,0,0,1,34
34040,-9.22,2.28,-3.29,0,0,1,34
34060,-9.23,2.07,-3.81,0,0,1,34
34080,-9.38,1.49,-4.55,0,0,1,34
34100,-8.44,1.28,-4.21,0,0,1,34
34120,-7.49,1.62,-3.66,0,0,1,34
34140,-13.16,-2.05,-7.27,0,0,1,34
34160,-17.38,-2.27,-10.3,0,0,1,34
34180,-12.84,-3.65,-8.82,0,0,1,34
34200,-9.41,-3.6,-3.65,0,0,1,34
34220,-8.33,-1.18,-3.07,0,0,1,34
34240,-7.44,2.05,-2.66,0,0,1,34
34260,-6.34,2.45,-1.0,0,0,1,34
34280,-6.19,1.38,-1.22,0,0,1,34
34300,-7.96,-0.42,-3.89,0,0,1,34
34320,-9.44,-1.79,-6.93,0,0,1,34
34340,-9.93,-1.83,-7.73,0,0,1,34
34360,-9.27,-0.98,-5.87,0,0,1,34
34380,-8.1,-0.17,-3.69,0,0,1,34
34400,-7.49,0.57,-3.26,0,0,1,34
34420,-7.41,0.08,-4.21,0,0,1,34
34440,-8.06,-0.4,-5.63,0,0,1,34
34460,-8.56,-0.9,-6.46,0,0,1,34
34480,-8.28,-0.25,-6.02,0,0,1,34
34500,-7.94,1.31,-4.97,0,0,1,34
34520,-8.02,2.45,-4.05,0,0,1,34
34540,-8.26,2.38,-4.28,0,0,1,34
34560,-8.51,1.54,-5.31,0,0,1,34
34580,-8.83,1.39,-5.71,0,0,1,34
34600,-8.63,1.68,-5.39,0,0,1,34
34620,-8.27,2.18,-4.95,0,0,1,34
34640,-8.15,2.3,-5.04,0,0,1,34
34660,-8.2,1.8,-5.14,0,0,1,34
34680,-7.93,1.74,-5.29,0,0,1,34
34700,-7.2,1.69,-5.19,0,0,1,34
34720,-7.0,1.73,-4.73,0,0,1,34
34740,-6.82,2.9,-4.59,0,0,1,34
34760,-6.8,3.7,-5.08,0,0,1,34
34780,-7.97,3.99,-5.71,0,0,1,34
34800,-8.92,3.81,-5.37,0,0,1,34
34820,-10.25,1.96,-2.71,0,0,1,34
34840,-8.57,1.48,-1.02,0,0,1,34
34860,-7.32,1.03,-2.98,0,0,1,34
34880,-7.96,-0.51,-6.49,0,0,1,34
34900,-9.02,-1.63,-7.45,0,0,1,34
34920,-9.7,-0.78,-6.51,0,0,1,34
34940,-10.41,2.0,-5.88,0,0,1,34
34960,-11.48,3.64,-5.6,0,0,1,34
34980,-11.41,2.32,-5.75,0,0,1,34
34000,-9.47,1.9,-3.16,0,0,1,35
34020,-9.51,2.38,-3.37,0,0,1,35
34040,-9.22,2.28,-3.29,0,0,1,35
34060,-9.23,2.07,-3.81,0,0,1,35
34080,-9.38,1.49,-4.55,0,0,1,35
34100,-8.44,1.28,-4.21,0,0,1,35
34120,-7.49,1.62,-3.66,0,0,1,35
34140,-13.16,-2.05,-7.27,0,0,1,35
34160,-17.38,-2.27,-10.3,0,0,1,35
34180,-12.84,-3.65,-8.82,0,0,1,35
34200,-9.41,-3.6,-3.65,0,0,1,35
34220,-8.33,-1.18,-3.07,0,0,1,35
34240,-7.44,2.05,-2.66,0,0,1,35
34260,-6.34,2.45,-1.0,0,0,1,35
34280,-6.19,1.38,-1.22,0,0,1,35
34300,-7.96,-0.42,-3.89,0,0,1,35
34320,-9.44,-1.79,-6.93,0,0,1,35
34340,-9.93,-1.83,-7.73,0,0,1,35
34360,-9.27,-0.98,-5.87,0,0,1,35
34380,-8.1,-0.17,-3.69,0,0,1,35
34400,-7.49,0.57,-3.26,0,0,1,35
34420,-7.41,0.08,-4.21,0,0,1,35
34440,-8.06,-0.4,-5.63,0,0,1,35
34460,-8.56,-0.9,-6.46,0,0,1,35
34480,-8.28,-0.25,-6.02,0,0,1,35
34500,-7.94,1.31,-4.97,0,0,1,35
34520,-8.02,2.45,-4.05,0,0,1,35
34540,-8.26,2.38,-4.28,0,0,1,35
34560,-8.51,1.54,-5.31,0,0,1,35
34580,-8.83,1.39,-5.71,0,0,1,35
34600,-8.63,1.68,-5.39,0,0,1,35
34620,-8.27,2.18,-4.95,0,0,1,35
34640,-8.15,2.3,-5.04,0,0,1,35
34660,-8.2,1.8,-5.14,0,0,1,35
34680,-7.93,1.74,-5.29,0,0,1,35
34700,-7.2,1.69,-5.19,0,0,1,35
34720,-7.0,1.73,-4.73,0,0,1,35
34740,-6.82,2.9,-4.59,0,0,1,35
34760,-6.8,3.7,-5.08,0,0,1,35
34780,-7.97,3.99,-5.71,0,0,1,35
34800,-8.92,3.81,-5.37,0,0,1,35
34820,-10.25,1.96,-2.71,0,0,1,35
34840,-8.57,1.48,-1.02,0,0,1,35
34860,-7.32,1.03,-2.98,0,0,1,35
34880,-7.96,-0.51,-6.49,0,0,1,35
34900,-9.02,-1.63,-7.45,0,0,1,35
34920,-9.7,-0.78,-6.51,0,0,1,35
34940,-10.41,2.0,-5.88,0,0,1,35
34960,-11.48,3.64,-5.6,0,0,1,35
34980,-11.41,2.32,-5.75,0,0,1,35
35000,-9.96,0.01,-5.44,0,0,1,35
35020,-9.0,0.03,-4.77,0,0,1,35
35040,-7.61,1.02,-3.64,0,0,1,35
35060,-6.75,1.47,-3.0,0,0,1,35
35080,-6.57,1.61,-2.55,0,0,1,35
35100,-7.29,1.06,-2.2,0,0,1,35
35120,-8.25,0.74,-2.44,0,0,1,35
35140,-8.94,1.2,-3.15,0,0,1,35
35160,-9.32,2.77,-4.24,0,0,1,35
35180,-10.05,3.9,-4.88,0,0,1,35
35200,-10.41,4.85,-5.07,0,0,1,35
35220,-9.81,4.57,-4.96,0,0,1,35
35240,-8.6,3.33,-3.88,0,0,1,35
35260,-7.57,2.32,-2.93,0,0,1,35
35280,-7.12,1.91,-2.69,0,0,1,35
35300,-7.07,2.24,-2.97,0,0,1,35
35320,-7.76,2.7,-3.22,0,0,1,35
35340,-7.61,3.04,-3.57,0,0,1,35
35360,-7.34,3.08,-3.52,0,0,1,35
35380,-7.73,3.33,-3.55,0,0,1,35
35400,-7.19,3.51,-3.7,0,0,1,35
35420,-7.4,3.94,-3.62,0,0,1,35
35440,-7.72,3.85,-3.66,0,0,1,35
35460,-8.43,3.38,-4.01,0,0,1,35
35480,-9.13,3.68,-4.86,0,0,1,35
35500,-11.16,3.6,-6.22,0,0,1,35
35520,-11.98,3.87,-8.04,0,0,1,35
35540,-11.63,3.4,-7.18,0,0,1,35
35560,-9.24,2.76,-5.16,0,0,1,35
35580,-8.41,2.34,-2.98,0,0,1,35
35600,-6.97,1.0,-1.73,0,0,1,35
35620,-6.7,-0.47,-1.77,0,0,1,35
35640,-7.2,-1.49,-2.28,0,0,1,35
35660,-8.57,-1.05,-3.48,0,0,1,35
35680,-9.82,0.02,-4.95,0,0,1,35
35700,-9.97,0.79,-6.17,0,0,1,35
35720,-9.09,0.86,-6.06,0,0,1,35
35740,-8.08,0.78,-4.73,0,0,1,35
35760,-7.64,0.3,-3.86,0,0,1,35
35780,-7.4,-0.07,-3.96,0,0,1,35
35800,-8.02,0.23,-5.03,0,0,1,35
35820,-8.82,1.23,-5.83,0,0,1,35
35840,-8.83,2.21,-5.68,0,0,1,35
35860,-8.15,2.63,-5.24,0,0,1,35
35880,-8.01,2.04,-4.96,0,0,1,35
35900,-8.03,1.56,-5.08,0,0,1,35
35920,-7.9,1.25,-5.25,0,0,1,35
35940,-7.98,1.31,-5.25,0,0,1,35
35960,-8.14,1.48,-5.25,0,0,1,35
35980,-8.03,1.95,-5.22,0,0,1,35
35000,-9.96,0.01,-5.44,0,0,1,36
35020,-9.0,0.03,-4.77,0,0,1,36
35040,-7.61,1.02,-3.64,0,0,1,36
35060,-6.75,1.47,-3.0,0,0,1,36
35080,-6.57,1.61,-2.55,0,0,1,36
35100,-7.29,1.06,-2.2,0,0,1,36
35120,-8.25,0.74,-2.44,0,0,1,36
35140,-8.94,1.2,-3.15,0,0,1,36
35160,-9.32,2.77,-4.24,0,0,1,36
35180,-10.05,3.9,-4.88,0,0,1,36
35200,-10.41,4.85,-5.07,0,0,1,36
35220,-9.81,4.57,-4.96,0,0,1,36
35240,-8.6,3.33,-3.88,0,0,1,36
35260,-7.57,2.32,-2.93,0,0,1,36
35280,-7.12,1.91,-2.69,0,0,1,36
35300,-7.07,2.24,-2.97,0,0,1,36
35320,-7.76,2.7,-3.22,0,0,1,36
35340,-7.61,3.04,-3.57,0,0,1,36
35360,-7.34,3.08,-3.52,0,0,1,36
35380,-7.73,3.33,-3.55,0,0,1,36
35400,-7.19,3.51,-3.7,0,0,1,36
35420,-7.4,3.94,-3.62,0,0,1,36
35440,-7.72,3.85,-3.66,0,0,1,36
35460,-8.43,3.38,-4.01,0,0,1,36
35480,-9.13,3.68,-4.86,0,0,1,36
35500,-11.16,3.6,-6.22,0,0,1,36
35520,-11.98,3.87,-8.04,0,0,1,36
35540,-11.63,3.4,-7.18,0,0,1,36
35560,-9.24,2.76,-5.16,0,0,1,36
35580,-8.41,2.34,-2.98,0,0,1,36
35600,-6.97,1.0,-1.73,0,0,1,36
35620,-6.7,-0.47,-1.77,0,0,1,36
35640,-7.2,-1.49,-2.28,0,0,1,36
35660,-8.57,-1.05,-3.48,0,0,1,36
35680,-9.82,0.02,-4.95,0,0,1,36
35700,-9.97,0.79,-6.17,0,0,1,36
35720,-9.09,0.86,-6.06,0,0,1,36
35740,-8.08,0.78,-4.73,0,0,1,36
35760,-7.64,0.3,-3.86,0,0,1,36
35780,-7.4,-0.07,-3.96,0,0,1,36
35800,-8.02,0.23,-5.03,0,0,1,36
35820,-8.82,1.23,-5.83,0,0,1,36
35840,-8.83,2.21,-5.68,0,0,1,36
35860,-8.15,2.63,-5.24,0,0,1,36
35880,-8.01,2.04,-4.96,0,0,1,36
35900,-8.03,1.56,-5.08,0,0,1,36
35920,-7.9,1.25,-5.25,0,0,1,36
35940,-7.98,1.31,-5.25,0,0,1,36
35960,-8.14,1.48,-5.25,0,0,1,36
35980,-8.03,1.95,-5.22,0,0,1,36
36000,-8.01,2.09,-5.56,0,0,1,36
36020,-8.09,2.32,-5.73,0,0,1,36
36040,-8.24,2.54,-5.65,0,0,1,36
36060,-8.12,2.6,-5.14,0,0,1,36
36080,-7.63,2.2,-5.12,0,0,1,36
36100,-7.63,1.77,-5.25,0,0,1,36
36120,-7.8,1.31,-5.67,0,0,1,36
36140,-8.01,1.16,-5.95,0,0,1,36
36160,-7.91,1.35,-5.74,0,0,1,36
36180,-7.67,1.51,-5.33,0,0,1,36
36200,-7.69,1.72,-5.16,0,0,1,36
36220,-7.59,2.11,-5.13,0,0,1,36
36240,-7.55,2.28,-5.49,0,0,1,36
36260,-7.65,1.87,-6.12,0,0,1,36
36280,-7.49,1.18,-6.99,0,0,1,36
36300,-7.67,0.9,-7.16,0,0,1,36
36320,-8.51,0.99,-5.56,0,0,1,36
36340,-9.09,2.27,-3.52,0,0,1,36
36360,-9.63,3.94,-3.8,0,0,1,36
36380,-10.5,2.56,-6.84,0,0,1,36
36400,-10.66,0.08,-8.26,0,0,1,36
36420,-9.92,-1.25,-8.4,0,0,1,36
36440,-9.08,-1.08,-6.35,0,0,1,36
36460,-6.82,0.7,-3.7,0,0,1,36
36480,-5.6,1.89,-2.06,0,0,1,36
36500,-5.76,1.87,-1.41,0,0,1,36
36520,-6.96,0.01,-1.84,0,0,1,36
36540,-8.26,-2.16,-3.13,0,0,1,36
36560,-8.87,-2.72,-4.1,0,0,1,36
36580,-9.92,-0.79,-4.89,0,0,1,36
36600,-10.88,3.33,-5.45,0,0,1,36
36620,-11.33,5.95,-5.86,0,0,1,36
36640,-10.42,6.13,-5.85,0,0,1,36
36660,-8.81,4.18,-5.07,0,0,1,36
36680,-7.72,1.8,-3.71,0,0,1,36
36700,-7.75,0.76,-3.48,0,0,1,36
36720,-8.4,1.2,-4.41,0,0,1,36
36740,-8.31,1.57,-4.99,0,0,1,36
36760,-8.28,0.91,-4.56,0,0,1,36
36780,-7.77,0.08,-3.94,0,0,1,36
36800,-6.57,0.18,-4.26,0,0,1,36
36820,-8.49,0.34,-4.99,0,0,1,36
36840,-7.71,2.56,-4.44,0,0,1,36
36860,-7.86,2.83,-3.88,0,0,1,36
36880,-7.7,3.07,-4.09,0,0,1,36
36900,-8.0,3.41,-4.61,0,0,1,36
36920,-7.66,3.55,-3.81,0,0,1,36
36940,-7.08,3.0,-3.32,0,0,1,36
36960,-7.39,2.47,-3.64,0,0,1,36
36980,-8.02,3.28,-4.11,0,0,1,36
36000,-8.01,2.09,-5.56,0,0,1,37
36020,-8.09,2.32,-5.73,0,0,1,37
36040,-8.24,2.54,-5.65,0,0,1,37
36060,-8.12,2.6,-5.14,0,0,1,37
36080,-7.63,2.2,-5.12,0,0,1,37
36100,-7.63,1.77,-5.25,0,0,1,37
36120,-7.8,1.31,-5.67,0,0,1,37
36140,-8.01,1.16,-5.95,0,0,1,37
36160,-7.91,1.35,-5.74,0,0,1,37
36180,-7.67,1.51,-5.33,0,0,1,37
36200,-7.69,1.72,-5.16,0,0,1,37
36220,-7.59,2.11,-5.13,0,0,1,37
36240,-7.55,2.28,-5.49,0,0,1,37
36260,-7.65,1.87,-6.12,0,0,1,37
36280,-7.49,1.18,-6.99,0,0,1,37
36300,-7.67,0.9,-7.16,0,0,1,37
36320,-8.51,0.99,-5.56,0,0,1,37
36340,-9.09,2.27,-3.52,0,0,1,37
36360,-9.63,3.94,-3.8,0,0,1,37
36380,-10.5,2.56,-6.84,0,0,1,37
36400,-10.66,0.08,-8.26,0,0,1,37
36420,-9.92,-1.25,-8.4,0,0,1,37
36440,-9.08,-1.08,-6.35,0,0,1,37
36460,-6.82,0.7,-3.7,0,0,1,37
36480,-5.6,1.89,-2.06,0,0,1,37
36500,-5.76,1.87,-1.41,0,0,1,37
36520,-6.96,0.01,-1.84,0,0,1,37
36540,-8.26,-2.16,-3.13,0,0,1,37
36560,-8.87,-2.72,-4.1,0,0,1,37
36580,-9.92,-0.79,-4.89,0,0,1,37
36600,-10.88,3.33,-5.45,0,0,1,37
36620,-11.33,5.95,-5.86,0,0,1,37
36640,-10.42,6.13,-5.85,0,0,1,37
36660,-8.81,4.18,-5.07,0,0,1,37
36680,-7.72,1.8,-3.71,0,0,1,37
36700,-7.75,0.76,-3.48,0,0,1,37
36720,-8.4,1.2,-4.41,0,0,1,37
36740,-8.31,1.57,-4.99,0,0,1,37
36760,-8.28,0.91,-4.56,0,0,1,37
36780,-7.77,0.08,-3.94,0,0,1,37
36800,-6.57,0.18,-4.26,0,0,1,37
36820,-8.49,0.34,-4.99,0,0,1,37
36840,-7.71,2.56,-4.44,0,0,1,37
36860,-7.86,2.83,-3.88,0,0,1,37
36880,-7.7,3.07,-4.09,0,0,1,37
36900,-8.0,3.41,-4.61,0,0,1,37
36920,-7.66,3.55,-3.81,0,0,1,37
36940,-7.08,3.0,-3.32,0,0,1,37
36960,-7.39,2.47,-3.64,0,0,1,37
36980,-8.02,3.28,-4.11,0,0,1,37
37000,-7.88,4.33,-4.82,0,0,1,37
37020,-7.37,4.29,-4.61,0,0,1,37
37040,-9.1,2.61,-4.42,0,0,1,37
37060,-10.77,2.93,-7.51,0,0,1,37
37080,-13.8,0.27,-9.22,0,0,1,37
37100,-11.93,0.12,-10.17,0,0,1,37
37120,-7.26,0.43,-5.25,0,0,1,37
37140,-5.29,2.4,-0.11,0,0,1,37
37160,-6.69,3.51,0.45,0,0,1,37
37180,-8.35,2.02,-2.91,0,0,1,37
37200,-9.38,-0.97,-5.79,0,0,1,37
37220,-8.81,-2.22,-5.55,0,0,1,37
37240,-7.66,-1.09,-4.75,0,0,1,37
37260,-7.67,0.73,-5.01,0,0,1,37
37280,-8.33,1.65,-5.74,0,0,1,37
37300,-8.49,1.39,-5.69,0,0,1,37
37320,-8.41,1.03,-5.16,0,0,1,37
37340,-8.32,0.09,-5.24,0,0,1,37
37360,-8.17,-0.5,-5.13,0,0,1,37
37380,-8.42,-0.16,-5.07,0,0,1,37
37400,-8.52,0.63,-5.17,0,0,1,37
37420,-8.25,1.12,-5.1,0,0,1,37
37440,-8.39,0.82,-5.04,0,0,1,37
37460,-8.41,0.11,-5.38,0,0,1,37
37480,-8.43,-0.78,-5.6,0,0,1,37
37500,-8.85,-1.58,-5.32,0,0,1,37
37520,-8.51,-1.55,-4.76,0,0,1,37
37540,-7.99,-0.61,-4.16,0,0,1,37
37560,-8.04,0.17,-4.74,0,0,1,37
37580,-8.44,0.38,-6.18,0,0,1,37
37600,-8.67,-0.01,-6.73,0,0,1,37
37620,-8.07,-0.1,-6.06,0,0,1,37
37640,-7.84,0.17,-5.3,0,0,1,37
37660,-7.61,0.6,-5.29,0,0,1,37
37680,-7.57,1.05,-5.65,0,0,1,37
37700,-7.73,1.01,-5.72,0,0,1,37
37720,-7.73,0.58,-5.84,0,0,1,37
37740,-7.9,0.0,-5.91,0,0,1,37
37760,-7.99,-0.19,-5.92,0,0,1,37
37780,-8.15,0.34,-5.92,0,0,1,37
37800,-8.3,1.24,-5.72,0,0,1,37
37820,-8.0,1.89,-5.67,0,0,1,37
37840,-8.59,1.9,-5.81,0,0,1,37
37860,-8.25,1.63,-6.01,0,0,1,37
37880,-7.73,1.39,-5.82,0,0,1,37
37900,-7.96,1.39,-5.5,0,0,1,37
37920,-8.18,1.62,-5.58,0,0,1,37
37940,-8.2,1.78,-5.46,0,0,1,37
37960,-8.38,1.74,-4.99,0,0,1,37
37980,-8.26,1.68,-4.58,0,0,1,37
37000,-7.88,4.33,-4.82,0,0,1,38
37020,-7.37,4.29,-4.61,0,0,1,38
37040,-9.1,2.61,-4.42,0,0,1,38
37060,-10.77,2.93,-7.51,0,0,1,38
37080,-13.8,0.27,-9.22,0,0,1,38
37100,-11.93,0.12,-10.17,0,0,1,38
37120,-7.26,0.43,-5.25,0,0,1,38
37140,-5.29,2.4,-0.11,0,0,1,38
37160,-6.69,3.51,0.45,0,0,1,38
37180,-8.35,2.02,-2.91,0,0,1,38
37200,-9.38,-0.97,-5.79,0,0,1,38
37220,-8.81,-2.22,-5.55,0,0,1,38
37240,-7.66,-1.09,-4.75,0,0,1,38
37260,-7.67,0.73,-5.01,0,0,1,38
37280,-8.33,1.65,-5.74,0,0,1,38
37300,-8.49,1.39,-5.69,0,0,1,38
37320,-8.41,1.03,-5.16,0,0,1,38
37340,-8.32,0.09,-5.24,0,0,1,38
37360,-8.17,-0.5,-5.13,0,0,1,38
37380,-8.42,-0.16,-5.07,0,0,1,38
37400,-8.52,0.63,-5.17,0,0,1,38
37420,-8.25,1.12,-5.1,0,0,1,38
37440,-8.39,0.82,-5.04,0,0,1,38
37460,-8.41,0.11,-5.38,0,0,1,38
37480,-8.43,-0.78,-5.6,0,0,1,38
37500,-8.85,-1.58,-5.32,0,0,1,38
37520,-8.51,-1.55,-4.76,0,0,1,38
37540,-7.99,-0.61,-4.16,0,0,1,38
37560,-8.04,0.17,-4.74,0,0,1,38
37580,-8.44,0.38,-6.18,0,0,1,38
37600,-8.67,-0.01,-6.73,0,0,1,38
37620,-8.07,-0.1,-6.06,0,0,1,38
37640,-7.84,0.17,-5.3,0,0,1,38
37660,-7.61,0.6,-5.29,0,0,1,38
37680,-7.57,1.05,-5.65,0,0,1,38
37700,-7.73,1.01,-5.72,0,0,1,38
37720,-7.73,0.58,-5.84,0,0,1,38
37740,-7.9,0.0,-5.91,0,0,1,38
37760,-7.99,-0.19,-5.92,0,0,1,38
37780,-8.15,0.34,-5.92,0,0,1,38
37800,-8.3,1.24,-5.72,0,0,1,38
37820,-8.0,1.89,-5.67,0,0,1,38
37840,-8.59,1.9,-5.81,0,0,1,38
37860,-8.25,1.63,-6.01,0,0,1,38
37880,-7.73,1.39,-5.82,0,0,1,38
37900,-7.96,1.39,-5.5,0,0,1,38
37920,-8.18,1.62,-5.58,0,0,1,38
37940,-8.2,1.78,-5.46,0,0,1,38
37960,-8.38,1.74,-4.99,0,0,1,38
37980,-8.26,1.68,-4.58,0,0,1,38
38000,-8.24,1.63,-4.63,0,0,1,38
38020,-8.62,1.54,-5.17,0,0,1,38
38040,-8.81,0.99,-4.85,0,0,1,38
38060,-8.13,1.17,-4.48,0,0,1,38
38080,-8.34,1.74,-3.84,0,0,1,38
38100,-9.26,0.73,-4.51,0,0,1,38
38120,-9.38,-1.96,-5.65,0,0,1,38
38140,-9.41,-4.25,-5.42,0,0,1,38
38160,-7.87,-5.03,-4.26,0,0,1,38
38180,-6.33,-3.38,-3.17,0,0,1,38
38200,-7.39,-0.25,-3.2,0,0,1,38
38220,-9.77,2.87,-4.53,0,0,1,38
38240,-10.79,5.09,-5.64,0,0,1,38
38260,-10.3,4.91,-6.02,0,0,1,38
38280,-9.88,3.01,-4.63,0,0,1,38
38300,-9.64,1.68,-3.53,0,0,1,38
38320,-9.52,1.89,-3.94,0,0,1,38
38340,-8.87,2.16,-4.65,0,0,1,38
38360,-7.48,2.66,-3.94,0,0,1,38
38380,-7.06,2.36,-2.63,0,0,1,38
38400,-6.54,2.66,-2.42,0,0,1,38
38420,-7.12,2.76,-2.85,0,0,1,38
38440,-7.8,2.77,-2.63,0,0,1,38
38460,-7.43,3.31,-2.33,0,0,1,38
38480,-7.7,2.9,-2.63,0,0,1,38
38500,-12.67,-0.28,-3.92,0,0,1,38
38520,-12.47,-0.86,-9.79,0,0,1,38
38540,-12.78,0.36,-12.33,0,0,1,38
38560,-8.31,1.94,-7.44,0,0,1,38
38580,-6.73,1.84,-2.08,0,0,1,38
38600,-4.61,0.45,2.82,0,0,1,38
38620,-7.37,-1.18,-0.96,0,0,1,38
38640,-8.85,-3.02,-7.06,0,0,1,38
38660,-9.12,-3.82,-10.54,0,0,1,38
38680,-9.02,-1.72,-8.49,0,0,1,38
38700,-7.83,2.55,-4.35,0,0,1,38
38720,-7.27,4.68,-2.12,0,0,1,38
38740,-7.85,3.93,-3.31,0,0,1,38
38760,-8.77,1.81,-5.39,0,0,1,38
38780,-9.05,0.53,-5.63,0,0,1,38
38800,-8.75,-0.22,-4.57,0,0,1,38
38820,-8.19,0.18,-3.43,0,0,1,38
38840,-8.07,0.86,-3.31,0,0,1,38
38860,-8.57,1.48,-4.32,0,0,1,38
38880,-8.75,1.74,-4.67,0,0,1,38
38900,-8.5,1.84,-4.53,0,0,1,38
38920,-8.26,1.69,-4.35,0,0,1,38
